Timestamp (ns),AccelX,AccelY,AccelZ,GyroX,GyroY,GyroZ
1724512016995364702,-192.0,-85.0,2696.0,-3.0,-9.0,1.0
1724512017000369585,-189.0,-88.0,2696.0,9.0,-11.0,-3.0
1724512017005374468,-185.0,-91.0,2705.0,0.0,-6.0,-6.0
1724512017010379351,-198.0,-92.0,2701.0,-5.0,-10.0,-2.0
1724512017015353716,-194.0,-90.0,2707.0,7.0,-9.0,-1.0
1724512017020358599,-187.0,-86.0,2693.0,-3.0,-11.0,3.0
1724512017025363482,-189.0,-88.0,2710.0,5.0,-3.0,-4.0
1724512017030368364,-193.0,-87.0,2710.0,1.0,-13.0,0.0
1724512017035373247,-201.0,-85.0,2708.0,2.0,-12.0,0.0
1724512017040378130,-194.0,-91.0,2699.0,5.0,-7.0,-4.0
1724512017045352495,-187.0,-96.0,2702.0,8.0,-17.0,-6.0
1724512017050357378,-193.0,-93.0,2712.0,-5.0,-9.0,3.0
1724512017055362261,-180.0,-87.0,2702.0,-1.0,-5.0,0.0
1724512017060367144,-182.0,-89.0,2699.0,-2.0,-9.0,-1.0
1724512017065372026,-185.0,-86.0,2699.0,1.0,-15.0,-7.0
1724512017070376909,-189.0,-90.0,2706.0,4.0,-10.0,3.0
1724512017075381792,-195.0,-88.0,2713.0,-4.0,-6.0,-2.0
1724512017080356157,-197.0,-85.0,2714.0,5.0,-2.0,-7.0
1724512017085361040,-194.0,-82.0,2704.0,2.0,-5.0,1.0
1724512017090365923,-196.0,-90.0,2707.0,1.0,-6.0,2.0
1724512017095370806,-191.0,-90.0,2703.0,4.0,-15.0,-3.0
1724512017100375689,-193.0,-87.0,2707.0,9.0,-13.0,-4.0
1724512017105380571,-199.0,-90.0,2716.0,8.0,-8.0,-2.0
1724512017110354937,-187.0,-88.0,2690.0,1.0,-7.0,-1.0
1724512017115359819,-188.0,-94.0,2703.0,5.0,-7.0,-6.0
1724512017120364702,-193.0,-80.0,2705.0,2.0,-7.0,2.0
1724512017125369585,-192.0,-82.0,2704.0,1.0,-8.0,-6.0
1724512017130374468,-195.0,-94.0,2710.0,8.0,-11.0,-4.0
1724512017135379351,-192.0,-86.0,2703.0,-2.0,-5.0,4.0
1724512017140353716,-204.0,-87.0,2706.0,6.0,-10.0,-5.0
1724512017145358599,-191.0,-93.0,2712.0,1.0,-12.0,-1.0
1724512017150363482,-185.0,-85.0,2704.0,-3.0,-11.0,3.0
1724512017155368364,-192.0,-88.0,2706.0,8.0,-5.0,-6.0
1724512017160373247,-186.0,-77.0,2705.0,6.0,-14.0,0.0
1724512017165378130,-188.0,-80.0,2699.0,-1.0,-7.0,0.0
1724512017170352495,-194.0,-95.0,2700.0,8.0,-16.0,-10.0
1724512017175357378,-189.0,-96.0,2707.0,8.0,-8.0,2.0
1724512017180362261,-195.0,-87.0,2708.0,0.0,-12.0,-2.0
1724512017185367144,-196.0,-83.0,2702.0,1.0,-3.0,2.0
1724512017190372026,-189.0,-91.0,2702.0,-1.0,-12.0,-2.0
1724512017195376909,-194.0,-90.0,2713.0,2.0,-8.0,-2.0
1724512017200381792,-199.0,-84.0,2710.0,3.0,-9.0,-5.0
1724512017205356157,-195.0,-94.0,2701.0,5.0,-15.0,0.0
1724512017210361040,-181.0,-92.0,2706.0,-1.0,-5.0,-5.0
1724512017215365923,-184.0,-81.0,2705.0,-1.0,-10.0,0.0
1724512017220370806,-198.0,-85.0,2697.0,3.0,-13.0,-3.0
1724512017225375689,-196.0,-92.0,2704.0,7.0,-4.0,-5.0
1724512017230380571,-199.0,-96.0,2703.0,2.0,-16.0,-2.0
1724512017235354937,-186.0,-94.0,2703.0,3.0,-11.0,-1.0
1724512017240359819,-186.0,-94.0,2703.0,0.0,-14.0,-4.0
1724512017245364702,-182.0,-82.0,2701.0,7.0,-8.0,-8.0
1724512017250369585,-192.0,-93.0,2705.0,7.0,-15.0,-3.0
1724512017255374468,-184.0,-95.0,2709.0,9.0,-12.0,-4.0
1724512017260379351,-192.0,-90.0,2707.0,2.0,-12.0,-1.0
1724512017265353716,-193.0,-80.0,2708.0,6.0,-6.0,3.0
1724512017270358599,-189.0,-88.0,2711.0,7.0,-10.0,-1.0
1724512017275363482,-191.0,-90.0,2707.0,11.0,-17.0,2.0
1724512017280368364,-197.0,-93.0,2706.0,-1.0,-13.0,-1.0
1724512017285373247,-202.0,-86.0,2699.0,6.0,-10.0,-9.0
1724512017290378130,-204.0,-86.0,2709.0,9.0,-9.0,2.0
1724512017295352495,-193.0,-89.0,2708.0,4.0,-12.0,-2.0
1724512017300357378,-197.0,-90.0,2701.0,3.0,-6.0,-2.0
1724512017305362261,-195.0,-87.0,2708.0,10.0,-9.0,0.0
1724512017310367144,-190.0,-80.0,2703.0,3.0,-14.0,1.0
1724512017315372026,-192.0,-84.0,2710.0,4.0,-3.0,-1.0
1724512017320376909,-188.0,-100.0,2703.0,-5.0,-4.0,-1.0
1724512017325381792,-186.0,-95.0,2706.0,6.0,-14.0,-1.0
1724512017330356157,-187.0,-92.0,2705.0,1.0,-2.0,-2.0
1724512017335361040,-202.0,-90.0,2705.0,5.0,-7.0,0.0
1724512017340365923,-195.0,-98.0,2708.0,7.0,-14.0,-1.0
1724512017345370806,-191.0,-94.0,2708.0,3.0,-5.0,2.0
1724512017350375689,-181.0,-89.0,2708.0,0.0,-12.0,-4.0
1724512017355380571,-188.0,-88.0,2704.0,-1.0,-11.0,-1.0
1724512017360354937,-197.0,-93.0,2711.0,4.0,-4.0,-4.0
1724512017365359819,-196.0,-90.0,2711.0,4.0,-18.0,1.0
1724512017370364702,-198.0,-85.0,2708.0,3.0,-5.0,6.0
1724512017375369585,-190.0,-100.0,2706.0,7.0,-10.0,-7.0
1724512017380374468,-196.0,-84.0,2706.0,2.0,-18.0,-1.0
1724512017385379351,-193.0,-74.0,2716.0,-2.0,-4.0,-1.0
1724512017390353716,-190.0,-88.0,2715.0,1.0,-17.0,2.0
1724512017395358599,-191.0,-89.0,2712.0,5.0,-7.0,-6.0
1724512017400363482,-193.0,-85.0,2705.0,4.0,-10.0,-5.0
1724512017405368364,-195.0,-83.0,2706.0,-5.0,1.0,4.0
1724512017410373247,-192.0,-78.0,2714.0,10.0,-10.0,-1.0
1724512017415378130,-194.0,-85.0,2710.0,-2.0,0.0,-2.0
1724512017420352495,-193.0,-96.0,2698.0,7.0,-16.0,-2.0
1724512017425357378,-188.0,-96.0,2702.0,8.0,-13.0,3.0
1724512017430362261,-195.0,-79.0,2712.0,1.0,-8.0,-1.0
1724512017435367144,-187.0,-84.0,2707.0,4.0,-9.0,-4.0
1724512017440372026,-188.0,-94.0,2710.0,3.0,-10.0,-4.0
1724512017445376909,-196.0,-92.0,2702.0,3.0,-8.0,0.0
1724512017450381792,-193.0,-89.0,2704.0,8.0,-6.0,-1.0
1724512017455356157,-188.0,-83.0,2700.0,0.0,-10.0,0.0
1724512017460361040,-186.0,-81.0,2696.0,5.0,-5.0,1.0
1724512017465365923,-185.0,-82.0,2699.0,7.0,-2.0,3.0
1724512017470370806,-193.0,-90.0,2703.0,2.0,-11.0,-2.0
1724512017475375689,-201.0,-89.0,2704.0,-1.0,-8.0,0.0
1724512017480380571,-191.0,-90.0,2706.0,3.0,-14.0,0.0
1724512017485354937,-197.0,-97.0,2703.0,7.0,-13.0,1.0
1724512017490359819,-182.0,-99.0,2715.0,-1.0,-11.0,-6.0
1724512017495364702,-182.0,-85.0,2712.0,5.0,-5.0,1.0
1724512017500369585,-189.0,-91.0,2709.0,2.0,-3.0,-3.0
1724512017505374468,-191.0,-91.0,2705.0,2.0,-10.0,1.0
1724512017510379351,-196.0,-88.0,2705.0,0.0,-6.0,-1.0
1724512017515353716,-186.0,-86.0,2700.0,7.0,-3.0,0.0
1724512017520358599,-187.0,-92.0,2699.0,2.0,-10.0,-3.0
1724512017525363482,-199.0,-89.0,2700.0,1.0,-12.0,-4.0
1724512017530368364,-195.0,-88.0,2702.0,3.0,-6.0,-1.0
1724512017535373247,-195.0,-95.0,2714.0,9.0,-5.0,7.0
1724512017540378130,-186.0,-96.0,2700.0,0.0,-14.0,-9.0
1724512017545352495,-194.0,-95.0,2710.0,9.0,-2.0,2.0
1724512017550357378,-191.0,-82.0,2715.0,3.0,-10.0,-9.0
1724512017555362261,-194.0,-95.0,2708.0,0.0,-23.0,4.0
1724512017560367144,-187.0,-90.0,2708.0,2.0,-5.0,-5.0
1724512017565372026,-182.0,-97.0,2713.0,9.0,-14.0,1.0
1724512017570376909,-190.0,-89.0,2697.0,8.0,-6.0,-1.0
1724512017575381792,-188.0,-86.0,2714.0,1.0,-12.0,-3.0
1724512017580356157,-191.0,-88.0,2703.0,6.0,2.0,-1.0
1724512017585361040,-183.0,-94.0,2705.0,2.0,-15.0,-3.0
1724512017590365923,-181.0,-92.0,2706.0,3.0,-16.0,-7.0
1724512017595370806,-199.0,-93.0,2701.0,9.0,-4.0,-1.0
1724512017600375689,-203.0,-90.0,2709.0,4.0,-6.0,1.0
1724512017605380571,-196.0,-88.0,2714.0,4.0,-12.0,-2.0
1724512017610354937,-193.0,-83.0,2720.0,4.0,-9.0,2.0
1724512017615359819,-192.0,-95.0,2705.0,5.0,-12.0,-5.0
1724512017620364702,-195.0,-86.0,2700.0,0.0,-13.0,-4.0
1724512017625369585,-186.0,-85.0,2714.0,-4.0,-8.0,-1.0
1724512017630374468,-196.0,-94.0,2712.0,-3.0,-6.0,2.0
1724512017635379351,-189.0,-90.0,2709.0,6.0,-5.0,3.0
1724512017640353716,-197.0,-94.0,2699.0,2.0,-8.0,-3.0
1724512017645358599,-194.0,-84.0,2698.0,-4.0,-5.0,-3.0
1724512017650363482,-193.0,-95.0,2705.0,3.0,-7.0,-1.0
1724512017655368364,-183.0,-85.0,2706.0,-1.0,-12.0,-2.0
1724512017660373247,-197.0,-95.0,2709.0,-1.0,-5.0,-7.0
1724512017665378130,-199.0,-94.0,2710.0,3.0,2.0,-4.0
1724512017670352495,-195.0,-92.0,2709.0,2.0,-13.0,-6.0
1724512017675357378,-191.0,-88.0,2702.0,6.0,-9.0,-3.0
1724512017680362261,-192.0,-92.0,2704.0,1.0,-13.0,1.0
1724512017685367144,-194.0,-92.0,2708.0,6.0,-9.0,-9.0
1724512017690372026,-198.0,-94.0,2698.0,8.0,-9.0,3.0
1724512017695376909,-194.0,-88.0,2692.0,3.0,-13.0,-9.0
1724512017700381792,-200.0,-89.0,2699.0,-3.0,-8.0,-9.0
1724512017705356157,-187.0,-94.0,2696.0,10.0,-1.0,8.0
1724512017710361040,-177.0,-91.0,2698.0,4.0,-3.0,-5.0
1724512017715365923,-200.0,-87.0,2707.0,5.0,-3.0,-3.0
1724512017720370806,-200.0,-92.0,2705.0,0.0,-8.0,-2.0
1724512017725375689,-186.0,-90.0,2708.0,2.0,-3.0,-3.0
1724512017730380571,-193.0,-86.0,2699.0,1.0,-14.0,-2.0
1724512017735354937,-186.0,-97.0,2703.0,9.0,-15.0,-1.0
1724512017740359819,-183.0,-96.0,2710.0,8.0,-4.0,-3.0
1724512017745364702,-187.0,-87.0,2708.0,2.0,-1.0,-3.0
1724512017750369585,-196.0,-89.0,2717.0,4.0,-3.0,-5.0
1724512017755374468,-192.0,-97.0,2714.0,5.0,-3.0,-3.0
1724512017760379351,-189.0,-85.0,2711.0,-1.0,-12.0,2.0
1724512017765353716,-196.0,-96.0,2716.0,1.0,-4.0,2.0
1724512017770358599,-198.0,-91.0,2699.0,4.0,-8.0,1.0
1724512017775363482,-192.0,-85.0,2692.0,1.0,-16.0,1.0
1724512017780368364,-192.0,-95.0,2696.0,7.0,-9.0,0.0
1724512017785373247,-188.0,-85.0,2696.0,11.0,-5.0,-6.0
1724512017790378130,-200.0,-94.0,2703.0,9.0,-12.0,3.0
1724512017795352495,-188.0,-87.0,2702.0,5.0,-2.0,-2.0
1724512017800357378,-183.0,-84.0,2702.0,6.0,-4.0,-9.0
1724512017805362261,-196.0,-81.0,2711.0,-1.0,-5.0,1.0
1724512017810367144,-181.0,-85.0,2703.0,12.0,-7.0,-8.0
1724512017815372026,-194.0,-86.0,2709.0,3.0,-15.0,0.0
1724512017820376909,-198.0,-95.0,2706.0,3.0,-13.0,1.0
1724512017825381792,-190.0,-86.0,2709.0,2.0,-10.0,0.0
1724512017830356157,-188.0,-92.0,2704.0,9.0,-3.0,-3.0
1724512017835361040,-191.0,-87.0,2701.0,0.0,-14.0,-7.0
1724512017840365923,-187.0,-85.0,2704.0,6.0,-11.0,5.0
1724512017845370806,-193.0,-88.0,2707.0,1.0,-11.0,-1.0
1724512017850375689,-195.0,-88.0,2708.0,0.0,2.0,-1.0
1724512017855380571,-198.0,-93.0,2705.0,0.0,-8.0,0.0
1724512017860354937,-191.0,-95.0,2704.0,5.0,-15.0,-4.0
1724512017865359819,-197.0,-88.0,2715.0,8.0,-5.0,-1.0
1724512017870364702,-187.0,-82.0,2720.0,2.0,-14.0,-11.0
1724512017875369585,-191.0,-94.0,2702.0,5.0,-14.0,-3.0
1724512017880374468,-191.0,-89.0,2700.0,2.0,-14.0,-1.0
1724512017885379351,-188.0,-80.0,2706.0,10.0,-9.0,-1.0
1724512017890353716,-192.0,-89.0,2706.0,8.0,-9.0,3.0
1724512017895358599,-186.0,-94.0,2702.0,6.0,-4.0,-6.0
1724512017900363482,-186.0,-86.0,2705.0,8.0,-8.0,-4.0
1724512017905368364,-186.0,-89.0,2704.0,3.0,-14.0,-6.0
1724512017910373247,-193.0,-85.0,2714.0,7.0,-4.0,2.0
1724512017915378130,-192.0,-85.0,2712.0,4.0,-10.0,-2.0
1724512017920352495,-190.0,-89.0,2713.0,8.0,-2.0,1.0
1724512017925357378,-185.0,-88.0,2710.0,6.0,-17.0,-7.0
1724512017930362261,-188.0,-97.0,2698.0,-3.0,-9.0,-6.0
1724512017935367144,-197.0,-93.0,2692.0,4.0,-12.0,0.0
1724512017940372026,-201.0,-82.0,2704.0,5.0,-5.0,0.0
1724512017945376909,-191.0,-100.0,2710.0,4.0,-13.0,-4.0
1724512017950381792,-188.0,-85.0,2701.0,0.0,-6.0,8.0
1724512017955356157,-196.0,-82.0,2694.0,-2.0,-6.0,-6.0
1724512017960361040,-184.0,-90.0,2712.0,-1.0,-14.0,-3.0
1724512017965365923,-182.0,-93.0,2707.0,9.0,-14.0,3.0
1724512017970370806,-186.0,-100.0,2705.0,3.0,-19.0,-4.0
1724512017975375689,-192.0,-89.0,2704.0,6.0,-4.0,-4.0
1724512017980380571,-195.0,-90.0,2702.0,-3.0,-6.0,-1.0
1724512017985354937,-197.0,-95.0,2705.0,7.0,1.0,1.0
1724512017990359819,-187.0,-90.0,2713.0,0.0,-9.0,-5.0
1724512017995364702,-188.0,-83.0,2701.0,2.0,-2.0,0.0
1724512018000369585,-194.0,-88.0,2708.0,10.0,-10.0,0.0
1724512018005374468,-189.0,-91.0,2703.0,7.0,-16.0,-3.0
1724512018010379351,-195.0,-88.0,2692.0,-4.0,-8.0,-1.0
1724512018015353716,-187.0,-88.0,2711.0,1.0,-8.0,-3.0
1724512018020358599,-194.0,-92.0,2715.0,5.0,-16.0,-5.0
1724512018025363482,-193.0,-91.0,2716.0,1.0,-3.0,-4.0
1724512018030368364,-191.0,-97.0,2720.0,7.0,-15.0,5.0
1724512018035373247,-202.0,-92.0,2711.0,1.0,-14.0,-1.0
1724512018040378130,-194.0,-87.0,2704.0,3.0,-6.0,-5.0
1724512018045352495,-190.0,-81.0,2703.0,3.0,-8.0,-6.0
1724512018050357378,-193.0,-82.0,2711.0,8.0,-3.0,-3.0
1724512018055362261,-189.0,-90.0,2701.0,3.0,0.0,0.0
1724512018060367144,-190.0,-99.0,2696.0,1.0,-8.0,-6.0
1724512018065372026,-189.0,-95.0,2700.0,4.0,-16.0,0.0
1724512018070376909,-197.0,-93.0,2708.0,2.0,-12.0,-6.0
1724512018075381792,-186.0,-91.0,2711.0,7.0,3.0,-1.0
1724512018080356157,-193.0,-94.0,2714.0,1.0,-10.0,-4.0
1724512018085361040,-185.0,-99.0,2705.0,-1.0,-8.0,5.0
1724512018090365923,-184.0,-92.0,2704.0,2.0,-4.0,-4.0
1724512018095370806,-197.0,-92.0,2707.0,7.0,-11.0,2.0
1724512018100375689,-197.0,-84.0,2701.0,4.0,-2.0,-2.0
1724512018105380571,-185.0,-91.0,2703.0,-2.0,-3.0,-1.0
1724512018110354937,-193.0,-93.0,2713.0,7.0,-10.0,-4.0
1724512018115359819,-192.0,-93.0,2712.0,6.0,-12.0,-2.0
1724512018120364702,-184.0,-91.0,2702.0,9.0,-11.0,2.0
1724512018125369585,-191.0,-91.0,2700.0,-2.0,-14.0,-5.0
1724512018130374468,-196.0,-94.0,2700.0,3.0,-5.0,-8.0
1724512018135379351,-197.0,-89.0,2709.0,3.0,-8.0,0.0
1724512018140353716,-191.0,-84.0,2703.0,-1.0,-3.0,-4.0
1724512018145358599,-194.0,-87.0,2700.0,7.0,-5.0,-5.0
1724512018150363482,-193.0,-95.0,2715.0,2.0,-4.0,-4.0
1724512018155368364,-195.0,-86.0,2714.0,5.0,-9.0,1.0
1724512018160373247,-200.0,-81.0,2704.0,5.0,-2.0,3.0
1724512018165378130,-195.0,-88.0,2706.0,-1.0,-8.0,-3.0
1724512018170352495,-184.0,-77.0,2704.0,1.0,-9.0,2.0
1724512018175357378,-190.0,-92.0,2704.0,8.0,0.0,-3.0
1724512018180362261,-187.0,-85.0,2708.0,1.0,-9.0,-5.0
1724512018185367144,-196.0,-85.0,2706.0,1.0,-11.0,-3.0
1724512018190372026,-198.0,-88.0,2702.0,7.0,-9.0,3.0
1724512018195376909,-195.0,-82.0,2707.0,9.0,-13.0,-6.0
1724512018200381792,-193.0,-85.0,2711.0,11.0,0.0,2.0
1724512018205356157,-185.0,-88.0,2711.0,2.0,-11.0,-2.0
1724512018210361040,-195.0,-89.0,2705.0,8.0,-10.0,-6.0
1724512018215365923,-193.0,-89.0,2710.0,-3.0,-11.0,4.0
1724512018220370806,-195.0,-92.0,2700.0,-1.0,1.0,-7.0
1724512018225375689,-190.0,-86.0,2696.0,5.0,-8.0,-7.0
1724512018230380571,-190.0,-85.0,2711.0,3.0,-6.0,-8.0
1724512018235354937,-188.0,-90.0,2703.0,2.0,-16.0,1.0
1724512018240359819,-193.0,-84.0,2704.0,2.0,1.0,-1.0
1724512018245364702,-198.0,-80.0,2706.0,5.0,-13.0,-4.0
1724512018250369585,-194.0,-93.0,2704.0,5.0,-9.0,-1.0
1724512018255374468,-190.0,-90.0,2699.0,11.0,-9.0,-6.0
1724512018260379351,-194.0,-91.0,2699.0,2.0,-6.0,-1.0
1724512018265353716,-194.0,-91.0,2699.0,2.0,-6.0,3.0
1724512018270358599,-189.0,-90.0,2710.0,5.0,-9.0,0.0
1724512018275363482,-185.0,-101.0,2712.0,5.0,-14.0,1.0
1724512018280368364,-191.0,-91.0,2715.0,-4.0,-9.0,-3.0
1724512018285373247,-184.0,-96.0,2714.0,5.0,-4.0,0.0
1724512018290378130,-190.0,-86.0,2701.0,4.0,-3.0,2.0
1724512018295352495,-192.0,-87.0,2699.0,3.0,-9.0,-7.0
1724512018300357378,-197.0,-89.0,2703.0,3.0,-3.0,5.0
1724512018305362261,-189.0,-93.0,2698.0,2.0,-6.0,-5.0
1724512018310367144,-190.0,-93.0,2704.0,5.0,1.0,1.0
1724512018315372026,-196.0,-89.0,2700.0,2.0,-8.0,0.0
1724512018320376909,-190.0,-96.0,2708.0,2.0,2.0,-1.0
1724512018325381792,-195.0,-87.0,2714.0,6.0,-11.0,-3.0
1724512018330356157,-196.0,-90.0,2704.0,2.0,-7.0,-3.0
1724512018335361040,-191.0,-92.0,2706.0,0.0,-13.0,0.0
1724512018340365923,-191.0,-80.0,2702.0,8.0,-12.0,2.0
1724512018345370806,-196.0,-89.0,2701.0,7.0,-2.0,1.0
1724512018350375689,-192.0,-91.0,2706.0,-1.0,-10.0,-3.0
1724512018355380571,-191.0,-92.0,2712.0,-2.0,-18.0,-1.0
1724512018360354937,-188.0,-80.0,2699.0,9.0,-10.0,-5.0
1724512018365359819,-177.0,-75.0,2699.0,0.0,-5.0,0.0
1724512018370364702,-189.0,-89.0,2702.0,7.0,-13.0,0.0
1724512018375369585,-186.0,-87.0,2716.0,5.0,-3.0,-4.0
1724512018380374468,-195.0,-86.0,2712.0,3.0,-2.0,-4.0
1724512018385379351,-193.0,-97.0,2707.0,0.0,-8.0,5.0
1724512018390353716,-192.0,-91.0,2719.0,4.0,0.0,2.0
1724512018395358599,-193.0,-80.0,2712.0,8.0,-7.0,-2.0
1724512018400363482,-202.0,-87.0,2703.0,1.0,-13.0,-3.0
1724512018405368364,-191.0,-85.0,2704.0,9.0,1.0,3.0
1724512018410373247,-189.0,-88.0,2705.0,3.0,-9.0,-6.0
1724512018415378130,-196.0,-84.0,2709.0,6.0,-13.0,0.0
1724512018420352495,-192.0,-92.0,2703.0,8.0,-4.0,-9.0
1724512018425357378,-189.0,-93.0,2697.0,2.0,-14.0,3.0
1724512018430362261,-189.0,-93.0,2701.0,11.0,-5.0,-5.0
1724512018435367144,-192.0,-87.0,2706.0,3.0,-7.0,-3.0
1724512018440372026,-190.0,-85.0,2706.0,8.0,-16.0,2.0
1724512018445376909,-185.0,-92.0,2711.0,2.0,-10.0,1.0
1724512018450381792,-191.0,-92.0,2693.0,4.0,0.0,3.0
1724512018455356157,-193.0,-92.0,2698.0,10.0,-11.0,-4.0
1724512018460361040,-200.0,-91.0,2703.0,1.0,-9.0,3.0
1724512018465365923,-195.0,-82.0,2710.0,5.0,-13.0,4.0
1724512018470370806,-186.0,-88.0,2707.0,7.0,-4.0,-7.0
1724512018475375689,-184.0,-85.0,2706.0,4.0,-10.0,0.0
1724512018480380571,-191.0,-84.0,2709.0,-6.0,-11.0,0.0
1724512018485354937,-199.0,-81.0,2716.0,11.0,-11.0,-2.0
1724512018490359819,-197.0,-86.0,2711.0,-3.0,-10.0,-6.0
1724512018495364702,-203.0,-87.0,2710.0,-2.0,-4.0,2.0
1724512018500369585,-192.0,-93.0,2716.0,5.0,-10.0,1.0
1724512018505374468,-189.0,-87.0,2709.0,8.0,-6.0,-4.0
1724512018510379351,-190.0,-89.0,2707.0,6.0,-14.0,-5.0
1724512018515353716,-186.0,-96.0,2706.0,4.0,-1.0,-4.0
1724512018520358599,-182.0,-92.0,2706.0,3.0,-13.0,-7.0
1724512018525363482,-193.0,-85.0,2702.0,3.0,-4.0,6.0
1724512018530368364,-195.0,-85.0,2704.0,7.0,-6.0,-2.0
1724512018535373247,-189.0,-92.0,2701.0,0.0,-5.0,4.0
1724512018540378130,-191.0,-96.0,2706.0,6.0,-16.0,-2.0
1724512018545352495,-193.0,-81.0,2711.0,2.0,-13.0,-6.0
1724512018550357378,-181.0,-85.0,2716.0,4.0,-9.0,-2.0
1724512018555362261,-185.0,-93.0,2712.0,1.0,-4.0,-3.0
1724512018560367144,-186.0,-87.0,2701.0,4.0,-7.0,3.0
1724512018565372026,-191.0,-99.0,2706.0,1.0,-13.0,0.0
1724512018570376909,-186.0,-96.0,2716.0,11.0,-12.0,-2.0
1724512018575381792,-186.0,-90.0,2704.0,2.0,-6.0,0.0
1724512018580356157,-193.0,-90.0,2703.0,-1.0,-11.0,-4.0
1724512018585361040,-199.0,-97.0,2694.0,-3.0,-4.0,2.0
1724512018590365923,-191.0,-89.0,2694.0,9.0,-16.0,7.0
1724512018595370806,-196.0,-85.0,2700.0,2.0,-9.0,-7.0
1724512018600375689,-197.0,-85.0,2696.0,1.0,-15.0,-3.0
1724512018605380571,-191.0,-96.0,2708.0,2.0,-8.0,-3.0
1724512018610354937,-190.0,-92.0,2707.0,7.0,-12.0,-2.0
1724512018615359819,-190.0,-91.0,2709.0,-3.0,-12.0,-3.0
1724512018620364702,-194.0,-87.0,2710.0,0.0,-6.0,-4.0
1724512018625369585,-198.0,-74.0,2703.0,2.0,-13.0,1.0
1724512018630374468,-195.0,-81.0,2708.0,2.0,-13.0,1.0
1724512018635379351,-197.0,-91.0,2702.0,-4.0,-7.0,5.0
1724512018640353716,-192.0,-87.0,2700.0,5.0,-16.0,-3.0
1724512018645358599,-187.0,-96.0,2708.0,12.0,-9.0,-3.0
1724512018650363482,-183.0,-91.0,2709.0,9.0,-16.0,7.0
1724512018655368364,-187.0,-92.0,2708.0,4.0,-3.0,2.0
1724512018660373247,-182.0,-90.0,2701.0,3.0,-6.0,-3.0
1724512018665378130,-182.0,-90.0,2699.0,-3.0,-6.0,2.0
1724512018670352495,-192.0,-87.0,2707.0,-2.0,1.0,3.0
1724512018675357378,-195.0,-84.0,2710.0,11.0,2.0,-5.0
1724512018680362261,-193.0,-86.0,2704.0,3.0,-17.0,3.0
1724512018685367144,-185.0,-92.0,2698.0,6.0,-9.0,-5.0
1724512018690372026,-193.0,-97.0,2702.0,6.0,-8.0,-6.0
1724512018695376909,-194.0,-97.0,2705.0,3.0,-10.0,1.0
1724512018700381792,-193.0,-86.0,2710.0,-1.0,-7.0,-1.0
1724512018705356157,-206.0,-96.0,2713.0,3.0,-5.0,-2.0
1724512018710361040,-203.0,-92.0,2707.0,4.0,-10.0,-1.0
1724512018715365923,-189.0,-81.0,2705.0,6.0,-4.0,-1.0
1724512018720370806,-189.0,-93.0,2710.0,4.0,-11.0,-3.0
1724512018725375689,-193.0,-85.0,2713.0,3.0,-9.0,-5.0
1724512018730380571,-199.0,-87.0,2704.0,4.0,-5.0,1.0
1724512018735354937,-184.0,-87.0,2708.0,5.0,-9.0,-4.0
1724512018740359819,-186.0,-88.0,2701.0,-1.0,-14.0,1.0
1724512018745364702,-197.0,-87.0,2698.0,2.0,-6.0,-6.0
1724512018750369585,-184.0,-89.0,2707.0,2.0,-7.0,11.0
1724512018755374468,-186.0,-91.0,2698.0,4.0,-15.0,-5.0
1724512018760379351,-194.0,-85.0,2704.0,2.0,-17.0,-10.0
1724512018765353716,-188.0,-98.0,2709.0,6.0,-11.0,-1.0
1724512018770358599,-185.0,-106.0,2704.0,-1.0,-14.0,4.0
1724512018775363482,-188.0,-96.0,2708.0,8.0,-3.0,-3.0
1724512018780368364,-196.0,-90.0,2705.0,3.0,-5.0,-6.0
1724512018785373247,-181.0,-93.0,2702.0,-1.0,-8.0,-3.0
1724512018790378130,-189.0,-88.0,2705.0,3.0,-7.0,6.0
1724512018795352495,-196.0,-87.0,2712.0,3.0,-6.0,-3.0
1724512018800357378,-199.0,-85.0,2709.0,9.0,-6.0,-2.0
1724512018805362261,-197.0,-85.0,2703.0,8.0,-8.0,-6.0
1724512018810367144,-186.0,-95.0,2711.0,7.0,-15.0,4.0
1724512018815372026,-188.0,-83.0,2698.0,3.0,-7.0,-6.0
1724512018820376909,-183.0,-88.0,2700.0,6.0,-9.0,-9.0
1724512018825381792,-190.0,-88.0,2706.0,9.0,-7.0,3.0
1724512018830356157,-201.0,-80.0,2706.0,0.0,-10.0,-2.0
1724512018835361040,-195.0,-86.0,2710.0,5.0,-12.0,-1.0
1724512018840365923,-189.0,-87.0,2716.0,7.0,-1.0,0.0
1724512018845370806,-187.0,-92.0,2705.0,0.0,-5.0,4.0
1724512018850375689,-188.0,-92.0,2691.0,4.0,-10.0,-1.0
1724512018855380571,-192.0,-96.0,2706.0,2.0,-3.0,-1.0
1724512018860354937,-192.0,-98.0,2708.0,3.0,-17.0,-4.0
1724512018865359819,-203.0,-96.0,2705.0,4.0,-1.0,-6.0
1724512018870364702,-206.0,-83.0,2704.0,4.0,-1.0,0.0
1724512018875369585,-193.0,-80.0,2713.0,0.0,-6.0,-3.0
1724512018880374468,-197.0,-89.0,2710.0,1.0,-5.0,3.0
1724512018885379351,-201.0,-92.0,2709.0,11.0,-3.0,-4.0
1724512018890353716,-197.0,-90.0,2707.0,2.0,-18.0,-2.0
1724512018895358599,-186.0,-91.0,2708.0,-1.0,-8.0,-4.0
1724512018900363482,-191.0,-98.0,2711.0,4.0,-14.0,0.0
1724512018905368364,-196.0,-93.0,2708.0,6.0,-11.0,-2.0
1724512018910373247,-193.0,-92.0,2710.0,2.0,-11.0,-4.0
1724512018915378130,-182.0,-96.0,2706.0,0.0,-10.0,-4.0
1724512018920352495,-197.0,-91.0,2702.0,3.0,-13.0,1.0
1724512018925357378,-197.0,-88.0,2711.0,0.0,-3.0,2.0
1724512018930362261,-193.0,-85.0,2700.0,-1.0,-14.0,-2.0
1724512018935367144,-189.0,-93.0,2707.0,8.0,-6.0,4.0
1724512018940372026,-187.0,-88.0,2708.0,8.0,-6.0,-5.0
1724512018945376909,-198.0,-84.0,2705.0,6.0,-8.0,-2.0
1724512018950381792,-192.0,-94.0,2703.0,2.0,-10.0,-1.0
1724512018955356157,-194.0,-83.0,2699.0,4.0,-5.0,-4.0
1724512018960361040,-192.0,-87.0,2693.0,3.0,3.0,1.0
1724512018965365923,-195.0,-88.0,2698.0,6.0,-9.0,-8.0
1724512018970370806,-184.0,-80.0,2705.0,11.0,-10.0,-1.0
1724512018975375689,-181.0,-86.0,2700.0,1.0,-14.0,-3.0
1724512018980380571,-197.0,-95.0,2710.0,5.0,-5.0,-5.0
1724512018985354937,-192.0,-93.0,2705.0,1.0,-11.0,1.0
1724512018990359819,-193.0,-88.0,2699.0,1.0,-5.0,3.0
1724512018995364702,-188.0,-92.0,2704.0,-1.0,-3.0,-3.0
1724512019000369585,-188.0,-88.0,2704.0,6.0,-13.0,0.0
1724512019005374468,-196.0,-83.0,2702.0,13.0,-6.0,-10.0
1724512019010379351,-192.0,-86.0,2714.0,1.0,-12.0,-7.0
1724512019015353716,-195.0,-86.0,2704.0,7.0,-9.0,-1.0
1724512019020358599,-191.0,-91.0,2709.0,1.0,-4.0,1.0
1724512019025363482,-188.0,-96.0,2705.0,-4.0,-3.0,-3.0
1724512019030368364,-187.0,-90.0,2709.0,3.0,-5.0,-1.0
1724512019035373247,-196.0,-90.0,2699.0,4.0,-1.0,-9.0
1724512019040378130,-190.0,-86.0,2705.0,7.0,-6.0,2.0
1724512019045352495,-200.0,-90.0,2712.0,2.0,-16.0,-3.0
1724512019050357378,-193.0,-92.0,2703.0,6.0,-5.0,0.0
1724512019055362261,-190.0,-94.0,2697.0,3.0,-7.0,-1.0
1724512019060367144,-194.0,-91.0,2701.0,1.0,-13.0,0.0
1724512019065372026,-198.0,-89.0,2710.0,1.0,-8.0,-3.0
1724512019070376909,-190.0,-83.0,2700.0,2.0,-11.0,3.0
1724512019075381792,-199.0,-94.0,2700.0,11.0,-14.0,-3.0
1724512019080356157,-192.0,-88.0,2707.0,5.0,0.0,0.0
1724512019085361040,-192.0,-95.0,2703.0,8.0,-9.0,-1.0
1724512019090365923,-192.0,-87.0,2705.0,0.0,-5.0,-2.0
1724512019095370806,-194.0,-87.0,2698.0,5.0,0.0,-8.0
1724512019100375689,-188.0,-93.0,2696.0,7.0,-4.0,-3.0
1724512019105380571,-196.0,-92.0,2705.0,2.0,-9.0,1.0
1724512019110354937,-197.0,-87.0,2706.0,1.0,-7.0,-4.0
1724512019115359819,-192.0,-91.0,2711.0,3.0,-9.0,5.0
1724512019120364702,-187.0,-98.0,2701.0,0.0,-13.0,-7.0
1724512019125369585,-182.0,-97.0,2709.0,0.0,-4.0,0.0
1724512019130374468,-187.0,-86.0,2707.0,5.0,-12.0,-4.0
1724512019135379351,-205.0,-80.0,2706.0,3.0,-9.0,-3.0
1724512019140353716,-186.0,-93.0,2710.0,0.0,-3.0,0.0
1724512019145358599,-182.0,-90.0,2706.0,-3.0,-7.0,-2.0
1724512019150363482,-195.0,-85.0,2709.0,6.0,-11.0,1.0
1724512019155368364,-189.0,-91.0,2702.0,5.0,-18.0,3.0
1724512019160373247,-194.0,-90.0,2697.0,10.0,-8.0,-2.0
1724512019165378130,-192.0,-88.0,2707.0,-5.0,-9.0,-7.0
1724512019170352495,-189.0,-94.0,2692.0,5.0,2.0,1.0
1724512019175357378,-191.0,-91.0,2708.0,7.0,-11.0,-2.0
1724512019180362261,-193.0,-83.0,2709.0,4.0,-8.0,-4.0
1724512019185367144,-188.0,-89.0,2703.0,9.0,-5.0,-5.0
1724512019190372026,-189.0,-95.0,2698.0,4.0,-10.0,4.0
1724512019195376909,-194.0,-94.0,2706.0,1.0,-11.0,-4.0
1724512019200381792,-192.0,-83.0,2708.0,3.0,3.0,2.0
1724512019205356157,-183.0,-82.0,2704.0,-1.0,-8.0,-3.0
1724512019210361040,-182.0,-92.0,2705.0,3.0,-14.0,2.0
1724512019215365923,-189.0,-85.0,2708.0,3.0,-7.0,-7.0
1724512019220370806,-196.0,-90.0,2709.0,6.0,-14.0,1.0
1724512019225375689,-197.0,-88.0,2715.0,7.0,-4.0,0.0
1724512019230380571,-194.0,-92.0,2713.0,-1.0,-13.0,-4.0
1724512019235354937,-199.0,-93.0,2703.0,1.0,-12.0,3.0
1724512019240359819,-191.0,-86.0,2704.0,6.0,-4.0,-8.0
1724512019245364702,-195.0,-95.0,2710.0,10.0,-7.0,-4.0
1724512019250369585,-196.0,-100.0,2701.0,4.0,-7.0,-6.0
1724512019255374468,-192.0,-86.0,2707.0,15.0,-6.0,1.0
1724512019260379351,-191.0,-79.0,2710.0,-1.0,-14.0,-1.0
1724512019265353716,-185.0,-84.0,2706.0,3.0,-5.0,-6.0
1724512019270358599,-192.0,-94.0,2711.0,4.0,-13.0,4.0
1724512019275363482,-198.0,-95.0,2708.0,5.0,-9.0,1.0
1724512019280368364,-189.0,-86.0,2707.0,8.0,-16.0,-4.0
1724512019285373247,-186.0,-88.0,2693.0,4.0,-7.0,-4.0
1724512019290378130,-197.0,-92.0,2701.0,10.0,-12.0,1.0
1724512019295352495,-197.0,-92.0,2701.0,1.0,-5.0,-7.0
1724512019300357378,-192.0,-95.0,2706.0,7.0,-9.0,-3.0
1724512019305362261,-187.0,-84.0,2707.0,3.0,-12.0,0.0
1724512019310367144,-189.0,-90.0,2711.0,6.0,-8.0,-8.0
1724512019315372026,-188.0,-89.0,2703.0,1.0,-6.0,2.0
1724512019320376909,-188.0,-90.0,2701.0,4.0,-11.0,1.0
1724512019325381792,-183.0,-93.0,2716.0,3.0,-9.0,-9.0
1724512019330356157,-195.0,-89.0,2707.0,3.0,-8.0,-1.0
1724512019335361040,-195.0,-87.0,2709.0,6.0,-13.0,-8.0
1724512019340365923,-178.0,-87.0,2717.0,-1.0,-1.0,-1.0
1724512019345370806,-179.0,-91.0,2712.0,-3.0,-4.0,1.0
1724512019350375689,-194.0,-97.0,2698.0,3.0,-9.0,-3.0
1724512019355380571,-202.0,-91.0,2704.0,10.0,-4.0,-1.0
1724512019360354937,-194.0,-85.0,2709.0,1.0,-5.0,-3.0
1724512019365359819,-192.0,-92.0,2709.0,5.0,-14.0,0.0
1724512019370364702,-182.0,-93.0,2706.0,2.0,-10.0,-2.0
1724512019375369585,-189.0,-90.0,2709.0,11.0,-14.0,-3.0
1724512019380374468,-190.0,-91.0,2704.0,0.0,-13.0,-5.0
1724512019385379351,-198.0,-92.0,2704.0,-2.0,-9.0,-11.0
1724512019390353716,-182.0,-97.0,2705.0,1.0,-8.0,-6.0
1724512019395358599,-185.0,-95.0,2705.0,5.0,-7.0,9.0
1724512019400363482,-194.0,-82.0,2698.0,3.0,-7.0,-11.0
1724512019405368364,-189.0,-88.0,2698.0,4.0,-13.0,0.0
1724512019410373247,-180.0,-96.0,2703.0,-3.0,-15.0,-6.0
1724512019415378130,-187.0,-91.0,2717.0,7.0,-8.0,0.0
1724512019420352495,-194.0,-102.0,2709.0,3.0,-10.0,-1.0
1724512019425357378,-199.0,-101.0,2705.0,-3.0,-13.0,-4.0
1724512019430362261,-188.0,-85.0,2716.0,-1.0,-6.0,3.0
1724512019435367144,-201.0,-86.0,2704.0,5.0,-5.0,5.0
1724512019440372026,-194.0,-92.0,2696.0,3.0,-2.0,3.0
1724512019445376909,-195.0,-88.0,2706.0,5.0,-13.0,-1.0
1724512019450381792,-200.0,-92.0,2709.0,-2.0,-10.0,-2.0
1724512019455356157,-186.0,-88.0,2702.0,2.0,-8.0,-7.0
1724512019460361040,-192.0,-83.0,2708.0,7.0,-6.0,-1.0
1724512019465365923,-185.0,-92.0,2697.0,4.0,-9.0,-6.0
1724512019470370806,-189.0,-96.0,2704.0,-3.0,-10.0,-6.0
1724512019475375689,-193.0,-94.0,2707.0,1.0,-13.0,1.0
1724512019480380571,-197.0,-84.0,2710.0,6.0,-2.0,-2.0
1724512019485354937,-193.0,-96.0,2703.0,0.0,-10.0,-5.0
1724512019490359819,-204.0,-95.0,2709.0,2.0,-9.0,0.0
1724512019495364702,-203.0,-99.0,2705.0,3.0,-8.0,-7.0
1724512019500369585,-198.0,-87.0,2709.0,6.0,-8.0,0.0
1724512019505374468,-196.0,-80.0,2710.0,5.0,-12.0,1.0
1724512019510379351,-197.0,-89.0,2702.0,4.0,-5.0,-2.0
1724512019515353716,-190.0,-92.0,2701.0,3.0,1.0,4.0
1724512019520358599,-187.0,-85.0,2705.0,1.0,-2.0,-1.0
1724512019525363482,-184.0,-92.0,2711.0,4.0,-3.0,-7.0
1724512019530368364,-189.0,-88.0,2703.0,8.0,-11.0,4.0
1724512019535373247,-197.0,-94.0,2699.0,3.0,-11.0,-4.0
1724512019540378130,-190.0,-86.0,2710.0,7.0,-9.0,-6.0
1724512019545352495,-187.0,-88.0,2702.0,0.0,-7.0,-8.0
1724512019550357378,-192.0,-87.0,2698.0,8.0,-12.0,-7.0
1724512019555362261,-187.0,-85.0,2698.0,9.0,-7.0,2.0
1724512019560367144,-183.0,-90.0,2693.0,4.0,-8.0,-2.0
1724512019565372026,-189.0,-86.0,2704.0,-4.0,-15.0,7.0
1724512019570376909,-181.0,-90.0,2713.0,4.0,-8.0,-10.0
1724512019575381792,-195.0,-93.0,2712.0,2.0,-9.0,3.0
1724512019580356157,-192.0,-87.0,2710.0,5.0,-4.0,-7.0
1724512019585361040,-194.0,-89.0,2710.0,1.0,-9.0,3.0
1724512019590365923,-196.0,-91.0,2706.0,6.0,-10.0,7.0
1724512019595370806,-191.0,-92.0,2694.0,0.0,-11.0,-7.0
1724512019600375689,-191.0,-85.0,2697.0,5.0,-11.0,-2.0
1724512019605380571,-194.0,-89.0,2702.0,4.0,-2.0,3.0
1724512019610354937,-190.0,-92.0,2706.0,8.0,-7.0,-6.0
1724512019615359819,-190.0,-85.0,2703.0,-3.0,-5.0,-1.0
1724512019620364702,-199.0,-97.0,2700.0,-3.0,-16.0,-10.0
1724512019625369585,-189.0,-88.0,2708.0,5.0,-13.0,5.0
1724512019630374468,-197.0,-91.0,2711.0,0.0,-9.0,-5.0
1724512019635379351,-197.0,-88.0,2704.0,-2.0,-12.0,2.0
1724512019640353716,-196.0,-88.0,2701.0,6.0,-3.0,-10.0
1724512019645358599,-186.0,-93.0,2709.0,7.0,-16.0,2.0
1724512019650363482,-191.0,-92.0,2694.0,-4.0,-13.0,-4.0
1724512019655368364,-199.0,-87.0,2701.0,-3.0,-9.0,-4.0
1724512019660373247,-196.0,-96.0,2701.0,6.0,-4.0,1.0
1724512019665378130,-189.0,-76.0,2709.0,-2.0,-10.0,4.0
1724512019670352495,-200.0,-81.0,2706.0,5.0,5.0,-4.0
1724512019675357378,-192.0,-85.0,2707.0,6.0,-10.0,-2.0
1724512019680362261,-195.0,-86.0,2701.0,0.0,-10.0,2.0
1724512019685367144,-191.0,-82.0,2703.0,6.0,-5.0,-5.0
1724512019690372026,-197.0,-88.0,2711.0,1.0,-7.0,-1.0
1724512019695376909,-193.0,-91.0,2706.0,-5.0,-8.0,-3.0
1724512019700381792,-191.0,-90.0,2704.0,6.0,-17.0,-4.0
1724512019705356157,-196.0,-82.0,2704.0,0.0,-7.0,3.0
1724512019710361040,-192.0,-85.0,2707.0,0.0,-4.0,4.0
1724512019715365923,-191.0,-92.0,2709.0,3.0,-9.0,-5.0
1724512019720370806,-193.0,-81.0,2702.0,12.0,0.0,-4.0
1724512019725375689,-194.0,-91.0,2700.0,1.0,-14.0,2.0
1724512019730380571,-188.0,-88.0,2702.0,3.0,-10.0,2.0
1724512019735354937,-194.0,-90.0,2710.0,0.0,2.0,-2.0
1724512019740359819,-195.0,-91.0,2716.0,2.0,-8.0,-5.0
1724512019745364702,-192.0,-86.0,2712.0,3.0,-6.0,-7.0
1724512019750369585,-188.0,-89.0,2709.0,2.0,-11.0,1.0
1724512019755374468,-189.0,-89.0,2709.0,-1.0,-12.0,-1.0
1724512019760379351,-201.0,-93.0,2702.0,0.0,-1.0,-4.0
1724512019765353716,-194.0,-87.0,2707.0,1.0,-15.0,-4.0
1724512019770358599,-187.0,-83.0,2701.0,6.0,-16.0,0.0
1724512019775363482,-195.0,-89.0,2710.0,3.0,-16.0,-6.0
1724512019780368364,-188.0,-87.0,2706.0,0.0,-8.0,-1.0
1724512019785373247,-191.0,-89.0,2708.0,3.0,-5.0,3.0
1724512019790378130,-190.0,-86.0,2703.0,3.0,-3.0,-7.0
1724512019795352495,-199.0,-87.0,2702.0,8.0,-14.0,0.0
1724512019800357378,-190.0,-83.0,2706.0,1.0,-5.0,-11.0
1724512019805362261,-192.0,-88.0,2706.0,1.0,-12.0,3.0
1724512019810367144,-191.0,-93.0,2706.0,-4.0,-5.0,-4.0
1724512019815372026,-188.0,-87.0,2709.0,-3.0,-10.0,4.0
1724512019820376909,-200.0,-87.0,2709.0,9.0,-10.0,0.0
1724512019825381792,-201.0,-90.0,2710.0,4.0,-15.0,-7.0
1724512019830356157,-199.0,-88.0,2709.0,3.0,-7.0,0.0
1724512019835361040,-199.0,-87.0,2714.0,1.0,3.0,-1.0
1724512019840365923,-194.0,-90.0,2709.0,-1.0,-14.0,-4.0
1724512019845370806,-190.0,-92.0,2702.0,8.0,-2.0,-1.0
1724512019850375689,-184.0,-90.0,2700.0,-5.0,-7.0,-3.0
1724512019855380571,-184.0,-88.0,2711.0,6.0,-3.0,6.0
1724512019860354937,-187.0,-85.0,2714.0,5.0,-12.0,2.0
1724512019865359819,-209.0,-81.0,2698.0,-2.0,-13.0,-2.0
1724512019870364702,-202.0,-87.0,2704.0,2.0,0.0,-3.0
1724512019875369585,-193.0,-83.0,2709.0,2.0,-11.0,-6.0
1724512019880374468,-195.0,-95.0,2700.0,6.0,-5.0,-1.0
1724512019885379351,-186.0,-86.0,2698.0,3.0,-1.0,-2.0
1724512019890353716,-192.0,-102.0,2705.0,-1.0,-6.0,0.0
1724512019895358599,-187.0,-91.0,2699.0,9.0,-4.0,-2.0
1724512019900363482,-187.0,-105.0,2697.0,2.0,-14.0,0.0
1724512019905368364,-197.0,-90.0,2703.0,3.0,-17.0,1.0
1724512019910373247,-186.0,-83.0,2719.0,10.0,-10.0,-4.0
1724512019915378130,-187.0,-81.0,2704.0,2.0,-9.0,3.0
1724512019920352495,-187.0,-83.0,2705.0,8.0,-7.0,0.0
1724512019925357378,-189.0,-100.0,2707.0,-2.0,-1.0,-1.0
1724512019930362261,-187.0,-95.0,2703.0,5.0,-4.0,-1.0
1724512019935367144,-187.0,-91.0,2709.0,7.0,-11.0,-3.0
1724512019940372026,-179.0,-88.0,2710.0,0.0,-6.0,1.0
1724512019945376909,-198.0,-90.0,2706.0,8.0,-7.0,-6.0
1724512019950381792,-211.0,-89.0,2701.0,1.0,-19.0,-4.0
1724512019955356157,-195.0,-83.0,2702.0,2.0,-8.0,0.0
1724512019960361040,-186.0,-93.0,2709.0,4.0,-7.0,3.0
1724512019965365923,-193.0,-92.0,2713.0,11.0,-4.0,-1.0
1724512019970370806,-196.0,-92.0,2703.0,5.0,-14.0,-2.0
1724512019975375689,-194.0,-96.0,2707.0,4.0,-10.0,-6.0
1724512019980380571,-179.0,-89.0,2702.0,1.0,-4.0,-4.0
1724512019985354937,-188.0,-100.0,2706.0,1.0,-9.0,-9.0
1724512019990359819,-184.0,-91.0,2709.0,2.0,-9.0,4.0
1724512019995364702,-187.0,-98.0,2699.0,4.0,-8.0,-7.0
1724512020000369585,-195.0,-87.0,2706.0,-1.0,-15.0,1.0
1724512020005374468,-185.0,-81.0,2708.0,7.0,-13.0,0.0
1724512020010379351,-193.0,-91.0,2701.0,8.0,-9.0,-2.0
1724512020015353716,-198.0,-93.0,2704.0,-1.0,-13.0,3.0
1724512020020358599,-189.0,-89.0,2704.0,-1.0,-11.0,-2.0
1724512020025363482,-196.0,-97.0,2704.0,10.0,-3.0,-11.0
1724512020030368364,-183.0,-100.0,2710.0,5.0,-11.0,-1.0
1724512020035373247,-192.0,-87.0,2708.0,6.0,-9.0,1.0
1724512020040378130,-193.0,-90.0,2699.0,10.0,-7.0,-3.0
1724512020045352495,-186.0,-89.0,2705.0,4.0,-17.0,3.0
1724512020050357378,-185.0,-80.0,2711.0,10.0,-2.0,0.0
1724512020055362261,-190.0,-86.0,2700.0,10.0,-7.0,-7.0
1724512020060367144,-197.0,-98.0,2699.0,5.0,-12.0,-2.0
1724512020065372026,-195.0,-84.0,2702.0,4.0,-12.0,-4.0
1724512020070376909,-182.0,-90.0,2709.0,3.0,-23.0,1.0
1724512020075381792,-193.0,-90.0,2713.0,3.0,-4.0,-4.0
1724512020080356157,-196.0,-82.0,2701.0,0.0,-5.0,0.0
1724512020085361040,-200.0,-85.0,2694.0,6.0,-13.0,-2.0
1724512020090365923,-190.0,-91.0,2704.0,2.0,-11.0,-8.0
1724512020095370806,-188.0,-89.0,2712.0,3.0,-3.0,-6.0
1724512020100375689,-192.0,-89.0,2707.0,10.0,-9.0,-2.0
1724512020105380571,-192.0,-91.0,2696.0,-1.0,-5.0,-1.0
1724512020110354937,-190.0,-87.0,2697.0,-3.0,-13.0,2.0
1724512020115359819,-191.0,-90.0,2708.0,3.0,-2.0,2.0
1724512020120364702,-200.0,-96.0,2707.0,-2.0,-5.0,-11.0
1724512020125369585,-192.0,-98.0,2709.0,5.0,0.0,2.0
1724512020130374468,-188.0,-99.0,2700.0,-1.0,-8.0,-1.0
1724512020135379351,-193.0,-84.0,2702.0,7.0,-2.0,-4.0
1724512020140353716,-193.0,-93.0,2706.0,5.0,-14.0,2.0
1724512020145358599,-189.0,-84.0,2703.0,-2.0,0.0,-3.0
1724512020150363482,-200.0,-85.0,2716.0,3.0,-9.0,5.0
1724512020155368364,-181.0,-94.0,2708.0,1.0,-15.0,-3.0
1724512020160373247,-184.0,-93.0,2703.0,-4.0,-3.0,5.0
1724512020165378130,-198.0,-84.0,2702.0,7.0,-9.0,1.0
1724512020170352495,-193.0,-88.0,2701.0,3.0,-14.0,-4.0
1724512020175357378,-185.0,-92.0,2706.0,8.0,-6.0,-4.0
1724512020180362261,-191.0,-81.0,2717.0,-2.0,-5.0,3.0
1724512020185367144,-192.0,-93.0,2705.0,4.0,-7.0,-5.0
1724512020190372026,-195.0,-89.0,2706.0,7.0,-8.0,2.0
1724512020195376909,-195.0,-94.0,2712.0,9.0,-5.0,-2.0
1724512020200381792,-184.0,-99.0,2704.0,6.0,-8.0,1.0
1724512020205356157,-180.0,-88.0,2706.0,2.0,-21.0,-4.0
1724512020210361040,-191.0,-93.0,2709.0,8.0,-8.0,1.0
1724512020215365923,-183.0,-88.0,2711.0,6.0,-16.0,1.0
1724512020220370806,-184.0,-94.0,2703.0,4.0,-16.0,-12.0
1724512020225375689,-194.0,-84.0,2696.0,11.0,-15.0,1.0
1724512020230380571,-192.0,-81.0,2702.0,2.0,-9.0,1.0
1724512020235354937,-184.0,-87.0,2716.0,3.0,-6.0,-3.0
1724512020240359819,-193.0,-100.0,2716.0,6.0,-12.0,-2.0
1724512020245364702,-194.0,-91.0,2713.0,7.0,-10.0,-1.0
1724512020250369585,-197.0,-92.0,2712.0,6.0,-6.0,-4.0
1724512020255374468,-189.0,-86.0,2700.0,4.0,-6.0,0.0
1724512020260379351,-193.0,-86.0,2703.0,5.0,-4.0,-9.0
1724512020265353716,-191.0,-93.0,2705.0,7.0,-14.0,2.0
1724512020270358599,-195.0,-94.0,2703.0,3.0,-8.0,-2.0
1724512020275363482,-192.0,-80.0,2721.0,4.0,-13.0,-1.0
1724512020280368364,-186.0,-83.0,2702.0,3.0,-5.0,-3.0
1724512020285373247,-187.0,-97.0,2701.0,6.0,-14.0,5.0
1724512020290378130,-187.0,-90.0,2695.0,4.0,-10.0,-10.0
1724512020295352495,-198.0,-88.0,2701.0,1.0,-11.0,4.0
1724512020300357378,-202.0,-85.0,2708.0,4.0,-8.0,-1.0
1724512020305362261,-188.0,-84.0,2700.0,3.0,-13.0,2.0
1724512020310367144,-183.0,-97.0,2703.0,1.0,-5.0,-6.0
1724512020315372026,-184.0,-92.0,2711.0,3.0,-10.0,-4.0
1724512020320376909,-190.0,-81.0,2705.0,7.0,-11.0,-6.0
1724512020325381792,-202.0,-85.0,2697.0,2.0,-4.0,0.0
1724512020330356157,-202.0,-85.0,2697.0,4.0,-8.0,-7.0
1724512020335361040,-194.0,-85.0,2710.0,6.0,-5.0,6.0
1724512020340365923,-185.0,-95.0,2711.0,-1.0,-15.0,-7.0
1724512020345370806,-187.0,-90.0,2712.0,-2.0,-5.0,-2.0
1724512020350375689,-191.0,-87.0,2700.0,1.0,-9.0,1.0
1724512020355380571,-198.0,-88.0,2699.0,10.0,-9.0,-5.0
1724512020360354937,-196.0,-95.0,2697.0,3.0,-10.0,-2.0
1724512020365359819,-183.0,-83.0,2701.0,3.0,-6.0,-4.0
1724512020370364702,-188.0,-84.0,2704.0,1.0,-7.0,1.0
1724512020375369585,-188.0,-86.0,2704.0,-2.0,-6.0,-1.0
1724512020380374468,-194.0,-94.0,2696.0,-3.0,-5.0,1.0
1724512020385379351,-198.0,-91.0,2701.0,9.0,-5.0,0.0
1724512020390353716,-195.0,-89.0,2712.0,-1.0,-8.0,-6.0
1724512020395358599,-198.0,-86.0,2708.0,-5.0,-9.0,0.0
1724512020400363482,-203.0,-94.0,2705.0,12.0,-5.0,-1.0
1724512020405368364,-196.0,-103.0,2702.0,0.0,-7.0,-4.0
1724512020410373247,-196.0,-91.0,2698.0,7.0,-12.0,-1.0
1724512020415378130,-193.0,-87.0,2700.0,6.0,-7.0,-1.0
1724512020420352495,-187.0,-85.0,2715.0,4.0,-15.0,2.0
1724512020425357378,-185.0,-91.0,2699.0,6.0,-5.0,-1.0
1724512020430362261,-191.0,-87.0,2704.0,1.0,1.0,4.0
1724512020435367144,-197.0,-87.0,2709.0,2.0,-5.0,-4.0
1724512020440372026,-196.0,-86.0,2706.0,7.0,-10.0,-4.0
1724512020445376909,-200.0,-86.0,2711.0,2.0,-11.0,-7.0
1724512020450381792,-196.0,-86.0,2707.0,10.0,-2.0,-2.0
1724512020455356157,-196.0,-86.0,2707.0,5.0,-9.0,0.0
1724512020460361040,-195.0,-95.0,2713.0,11.0,0.0,-4.0
1724512020465365923,-191.0,-94.0,2702.0,0.0,-8.0,0.0
1724512020470370806,-181.0,-84.0,2710.0,3.0,-12.0,-6.0
1724512020475375689,-184.0,-90.0,2709.0,3.0,0.0,2.0
1724512020480380571,-195.0,-93.0,2707.0,10.0,-6.0,-7.0
1724512020485354937,-203.0,-90.0,2710.0,-3.0,-12.0,-2.0
1724512020490359819,-187.0,-95.0,2706.0,-3.0,-11.0,-1.0
1724512020495364702,-185.0,-88.0,2706.0,6.0,-12.0,-9.0
1724512020500369585,-189.0,-95.0,2704.0,9.0,-6.0,3.0
1724512020505374468,-189.0,-86.0,2690.0,3.0,-11.0,-4.0
1724512020510379351,-197.0,-97.0,2701.0,10.0,-12.0,-4.0
1724512020515353716,-195.0,-98.0,2708.0,1.0,-18.0,-6.0
1724512020520358599,-190.0,-96.0,2711.0,3.0,-7.0,-3.0
1724512020525363482,-191.0,-89.0,2706.0,0.0,-8.0,1.0
1724512020530368364,-193.0,-90.0,2708.0,2.0,-4.0,0.0
1724512020535373247,-191.0,-94.0,2704.0,10.0,-5.0,-5.0
1724512020540378130,-194.0,-90.0,2709.0,5.0,-11.0,-3.0
1724512020545352495,-192.0,-84.0,2702.0,1.0,-13.0,-3.0
1724512020550357378,-189.0,-88.0,2706.0,15.0,-14.0,-2.0
1724512020555362261,-185.0,-85.0,2704.0,1.0,-6.0,-3.0
1724512020560367144,-198.0,-101.0,2699.0,6.0,-3.0,-7.0
1724512020565372026,-189.0,-99.0,2702.0,-1.0,-7.0,2.0
1724512020570376909,-193.0,-85.0,2712.0,1.0,-4.0,-6.0
1724512020575381792,-187.0,-95.0,2702.0,3.0,-12.0,-1.0
1724512020580356157,-182.0,-97.0,2693.0,3.0,0.0,-1.0
1724512020585361040,-186.0,-89.0,2705.0,-4.0,-7.0,-9.0
1724512020590365923,-194.0,-89.0,2700.0,4.0,-13.0,2.0
1724512020595370806,-193.0,-87.0,2703.0,1.0,-12.0,-2.0
1724512020600375689,-195.0,-89.0,2709.0,2.0,-6.0,2.0
1724512020605380571,-202.0,-96.0,2707.0,9.0,-10.0,-3.0
1724512020610354937,-195.0,-81.0,2710.0,3.0,-6.0,-3.0
1724512020615359819,-188.0,-86.0,2703.0,10.0,-21.0,-2.0
1724512020620364702,-189.0,-98.0,2703.0,8.0,-14.0,-3.0
1724512020625369585,-195.0,-84.0,2699.0,-1.0,-7.0,1.0
1724512020630374468,-196.0,-91.0,2706.0,0.0,-6.0,2.0
1724512020635379351,-173.0,-97.0,2706.0,6.0,-9.0,-2.0
1724512020640353716,-186.0,-87.0,2709.0,8.0,-12.0,-2.0
1724512020645358599,-195.0,-86.0,2699.0,-4.0,-13.0,2.0
1724512020650363482,-191.0,-84.0,2698.0,7.0,-7.0,-4.0
1724512020655368364,-194.0,-87.0,2709.0,8.0,-10.0,-5.0
1724512020660373247,-193.0,-77.0,2716.0,5.0,-7.0,-1.0
1724512020665378130,-190.0,-88.0,2699.0,7.0,-14.0,-5.0
1724512020670352495,-199.0,-95.0,2697.0,9.0,-17.0,-7.0
1724512020675357378,-199.0,-85.0,2714.0,9.0,-2.0,0.0
1724512020680362261,-187.0,-87.0,2710.0,3.0,-4.0,-6.0
1724512020685367144,-192.0,-94.0,2705.0,1.0,-9.0,-3.0
1724512020690372026,-190.0,-95.0,2704.0,7.0,-18.0,-1.0
1724512020695376909,-198.0,-97.0,2705.0,12.0,-11.0,-1.0
1724512020700381792,-194.0,-95.0,2701.0,0.0,-15.0,0.0
1724512020705356157,-185.0,-84.0,2708.0,9.0,-18.0,-3.0
1724512020710361040,-191.0,-85.0,2712.0,8.0,-9.0,-5.0
1724512020715365923,-193.0,-88.0,2705.0,6.0,-9.0,-2.0
1724512020720370806,-192.0,-85.0,2706.0,-2.0,-9.0,1.0
1724512020725375689,-193.0,-82.0,2700.0,7.0,-17.0,-8.0
1724512020730380571,-193.0,-90.0,2711.0,5.0,-2.0,-2.0
1724512020735354937,-193.0,-102.0,2704.0,7.0,4.0,-5.0
1724512020740359819,-193.0,-87.0,2697.0,5.0,-12.0,0.0
1724512020745364702,-195.0,-85.0,2698.0,4.0,-11.0,-4.0
1724512020750369585,-192.0,-89.0,2699.0,4.0,-8.0,-3.0
1724512020755374468,-186.0,-86.0,2706.0,-6.0,-9.0,2.0
1724512020760379351,-185.0,-90.0,2702.0,8.0,-8.0,4.0
1724512020765353716,-190.0,-90.0,2712.0,-1.0,-9.0,1.0
1724512020770358599,-191.0,-94.0,2706.0,-4.0,-11.0,1.0
1724512020775363482,-190.0,-91.0,2703.0,11.0,-14.0,-3.0
1724512020780368364,-180.0,-91.0,2707.0,2.0,-9.0,-5.0
1724512020785373247,-193.0,-87.0,2709.0,-2.0,-8.0,-8.0
1724512020790378130,-198.0,-86.0,2701.0,2.0,-2.0,2.0
1724512020795352495,-193.0,-83.0,2697.0,-1.0,-6.0,-7.0
1724512020800357378,-190.0,-88.0,2700.0,4.0,-8.0,-1.0
1724512020805362261,-190.0,-90.0,2704.0,2.0,-2.0,0.0
1724512020810367144,-193.0,-84.0,2718.0,11.0,-1.0,-5.0
1724512020815372026,-184.0,-88.0,2698.0,3.0,-1.0,3.0
1724512020820376909,-193.0,-93.0,2713.0,6.0,-9.0,0.0
1724512020825381792,-196.0,-88.0,2720.0,4.0,-18.0,-9.0
1724512020830356157,-188.0,-82.0,2713.0,8.0,-16.0,-2.0
1724512020835361040,-194.0,-94.0,2707.0,2.0,-3.0,-3.0
1724512020840365923,-193.0,-95.0,2705.0,3.0,-4.0,0.0
1724512020845370806,-190.0,-91.0,2699.0,7.0,-22.0,-7.0
1724512020850375689,-196.0,-78.0,2704.0,3.0,-10.0,0.0
1724512020855380571,-178.0,-86.0,2711.0,4.0,-8.0,2.0
1724512020860354937,-189.0,-91.0,2716.0,8.0,-13.0,-7.0
1724512020865359819,-192.0,-88.0,2705.0,-2.0,-15.0,1.0
1724512020870364702,-189.0,-93.0,2702.0,7.0,-3.0,-1.0
1724512020875369585,-185.0,-79.0,2713.0,7.0,-10.0,1.0
1724512020880374468,-192.0,-95.0,2698.0,6.0,-13.0,3.0
1724512020885379351,-186.0,-95.0,2697.0,-2.0,-7.0,-4.0
1724512020890353716,-194.0,-88.0,2707.0,9.0,-6.0,-3.0
1724512020895358599,-192.0,-92.0,2710.0,5.0,-4.0,-2.0
1724512020900363482,-194.0,-88.0,2707.0,1.0,-6.0,4.0
1724512020905368364,-197.0,-81.0,2706.0,5.0,-14.0,3.0
1724512020910373247,-192.0,-103.0,2710.0,-1.0,-11.0,-8.0
1724512020915378130,-196.0,-88.0,2697.0,2.0,-11.0,-5.0
1724512020920352495,-191.0,-90.0,2706.0,5.0,-5.0,-4.0
1724512020925357378,-189.0,-94.0,2702.0,14.0,-9.0,-1.0
1724512020930362261,-194.0,-89.0,2700.0,3.0,-9.0,-5.0
1724512020935367144,-192.0,-98.0,2697.0,-6.0,-6.0,7.0
1724512020940372026,-200.0,-88.0,2702.0,7.0,-10.0,-7.0
1724512020945376909,-191.0,-96.0,2708.0,7.0,-14.0,-3.0
1724512020950381792,-190.0,-88.0,2713.0,6.0,-16.0,-2.0
1724512020955356157,-189.0,-89.0,2713.0,7.0,-8.0,-1.0
1724512020960361040,-193.0,-94.0,2704.0,2.0,-4.0,0.0
1724512020965365923,-195.0,-85.0,2695.0,6.0,-6.0,-3.0
1724512020970370806,-192.0,-88.0,2704.0,6.0,-14.0,-3.0
1724512020975375689,-188.0,-82.0,2708.0,5.0,-6.0,-1.0
1724512020980380571,-190.0,-80.0,2709.0,-3.0,-7.0,-1.0
1724512020985354937,-192.0,-85.0,2712.0,9.0,-10.0,2.0
1724512020990359819,-192.0,-97.0,2699.0,4.0,-9.0,1.0
1724512020995364702,-187.0,-89.0,2704.0,4.0,-7.0,2.0
1724512021000369585,-195.0,-92.0,2708.0,3.0,-8.0,-6.0
1724512021005374468,-195.0,-95.0,2695.0,4.0,-11.0,-7.0
1724512021010379351,-187.0,-85.0,2707.0,0.0,-7.0,-2.0
1724512021015353716,-190.0,-85.0,2708.0,5.0,-8.0,-1.0
1724512021020358599,-196.0,-90.0,2707.0,1.0,-5.0,2.0
1724512021025363482,-195.0,-83.0,2705.0,5.0,-16.0,-8.0
1724512021030368364,-203.0,-88.0,2707.0,6.0,-10.0,2.0
1724512021035373247,-203.0,-87.0,2704.0,5.0,-9.0,0.0
1724512021040378130,-191.0,-88.0,2702.0,6.0,-3.0,-2.0
1724512021045352495,-189.0,-87.0,2704.0,0.0,-4.0,-2.0
1724512021050357378,-188.0,-93.0,2699.0,7.0,-8.0,2.0
1724512021055362261,-194.0,-93.0,2709.0,6.0,-12.0,-7.0
1724512021060367144,-194.0,-86.0,2710.0,4.0,-11.0,-1.0
1724512021065372026,-186.0,-97.0,2707.0,-1.0,-20.0,-5.0
1724512021070376909,-192.0,-88.0,2706.0,0.0,-3.0,2.0
1724512021075381792,-186.0,-85.0,2699.0,2.0,-1.0,-2.0
1724512021080356157,-188.0,-86.0,2703.0,6.0,-9.0,-3.0
1724512021085361040,-188.0,-79.0,2712.0,5.0,-10.0,2.0
1724512021090365923,-192.0,-95.0,2712.0,-6.0,-7.0,-2.0
1724512021095370806,-190.0,-98.0,2709.0,0.0,-11.0,-5.0
1724512021100375689,-194.0,-78.0,2713.0,3.0,-10.0,0.0
1724512021105380571,-186.0,-81.0,2701.0,-2.0,-9.0,-6.0
1724512021110354937,-187.0,-88.0,2695.0,-1.0,-2.0,-7.0
1724512021115359819,-197.0,-93.0,2709.0,-1.0,-12.0,10.0
1724512021120364702,-190.0,-94.0,2706.0,9.0,-14.0,-6.0
1724512021125369585,-191.0,-92.0,2707.0,1.0,-12.0,1.0
1724512021130374468,-193.0,-90.0,2695.0,-6.0,-11.0,0.0
1724512021135379351,-181.0,-87.0,2708.0,2.0,-11.0,0.0
1724512021140353716,-192.0,-81.0,2703.0,4.0,-12.0,-9.0
1724512021145358599,-188.0,-95.0,2694.0,-4.0,-10.0,-1.0
1724512021150363482,-188.0,-93.0,2704.0,2.0,-6.0,0.0
1724512021155368364,-194.0,-92.0,2716.0,0.0,-15.0,-2.0
1724512021160373247,-189.0,-96.0,2712.0,5.0,-5.0,-1.0
1724512021165378130,-195.0,-86.0,2710.0,-3.0,-14.0,-4.0
1724512021170352495,-194.0,-90.0,2708.0,-5.0,0.0,-4.0
1724512021175357378,-195.0,-88.0,2702.0,4.0,-5.0,8.0
1724512021180362261,-186.0,-96.0,2705.0,16.0,-14.0,-1.0
1724512021185367144,-193.0,-84.0,2697.0,2.0,-10.0,-6.0
1724512021190372026,-190.0,-86.0,2697.0,5.0,-6.0,-7.0
1724512021195376909,-190.0,-97.0,2709.0,1.0,-9.0,0.0
1724512021200381792,-183.0,-94.0,2706.0,-10.0,-9.0,-3.0
1724512021205356157,-192.0,-97.0,2711.0,2.0,-9.0,6.0
1724512021210361040,-194.0,-90.0,2707.0,4.0,-5.0,-4.0
1724512021215365923,-192.0,-81.0,2721.0,1.0,-13.0,-1.0
1724512021220370806,-188.0,-92.0,2703.0,7.0,-9.0,-3.0
1724512021225375689,-194.0,-85.0,2700.0,7.0,-9.0,1.0
1724512021230380571,-194.0,-87.0,2709.0,11.0,-9.0,-3.0
1724512021235354937,-186.0,-86.0,2702.0,0.0,-18.0,-3.0
1724512021240359819,-185.0,-87.0,2703.0,12.0,-8.0,2.0
1724512021245364702,-177.0,-82.0,2708.0,5.0,-1.0,1.0
1724512021250369585,-188.0,-79.0,2695.0,5.0,-7.0,-8.0
1724512021255374468,-189.0,-81.0,2706.0,10.0,-14.0,-5.0
1724512021260379351,-182.0,-92.0,2706.0,11.0,-12.0,-4.0
1724512021265353716,-198.0,-93.0,2704.0,-1.0,-16.0,-2.0
1724512021270358599,-190.0,-84.0,2700.0,1.0,-7.0,2.0
1724512021275363482,-186.0,-89.0,2705.0,2.0,-5.0,-4.0
1724512021280368364,-189.0,-102.0,2708.0,4.0,-11.0,1.0
1724512021285373247,-186.0,-92.0,2702.0,6.0,-8.0,-4.0
1724512021290378130,-186.0,-90.0,2707.0,0.0,-3.0,-6.0
1724512021295352495,-188.0,-98.0,2705.0,6.0,-8.0,-2.0
1724512021300357378,-190.0,-93.0,2699.0,13.0,-8.0,-5.0
1724512021305362261,-193.0,-86.0,2707.0,5.0,-12.0,-6.0
1724512021310367144,-194.0,-90.0,2706.0,12.0,-2.0,-5.0
1724512021315372026,-187.0,-86.0,2701.0,1.0,3.0,0.0
1724512021320376909,-191.0,-85.0,2709.0,9.0,-2.0,-2.0
1724512021325381792,-197.0,-84.0,2712.0,7.0,-9.0,-4.0
1724512021330356157,-194.0,-87.0,2694.0,1.0,-9.0,3.0
1724512021335361040,-191.0,-91.0,2699.0,7.0,-10.0,-6.0
1724512021340365923,-198.0,-87.0,2714.0,3.0,-12.0,5.0
1724512021345370806,-185.0,-84.0,2702.0,6.0,-6.0,-1.0
1724512021350375689,-183.0,-89.0,2709.0,9.0,-12.0,0.0
1724512021355380571,-183.0,-89.0,2709.0,2.0,-3.0,-7.0
1724512021360354937,-197.0,-89.0,2711.0,1.0,-12.0,-6.0
1724512021365359819,-191.0,-94.0,2710.0,8.0,-5.0,0.0
1724512021370364702,-191.0,-86.0,2718.0,2.0,-5.0,-9.0
1724512021375369585,-194.0,-90.0,2708.0,4.0,-6.0,2.0
1724512021380374468,-197.0,-89.0,2708.0,5.0,-4.0,-7.0
1724512021385379351,-189.0,-95.0,2710.0,-1.0,-12.0,-3.0
1724512021390353716,-192.0,-88.0,2693.0,13.0,-11.0,-2.0
1724512021395358599,-195.0,-88.0,2694.0,-2.0,-16.0,-10.0
1724512021400363482,-192.0,-86.0,2708.0,3.0,-8.0,10.0
1724512021405368364,-189.0,-89.0,2710.0,0.0,-5.0,-8.0
1724512021410373247,-194.0,-87.0,2701.0,-4.0,-10.0,5.0
1724512021415378130,-197.0,-89.0,2704.0,3.0,-11.0,-1.0
1724512021420352495,-186.0,-85.0,2701.0,3.0,-11.0,-1.0
1724512021425357378,-186.0,-88.0,2698.0,-1.0,-11.0,1.0
1724512021430362261,-184.0,-88.0,2702.0,7.0,-12.0,-6.0
1724512021435367144,-196.0,-99.0,2710.0,-1.0,-9.0,2.0
1724512021440372026,-195.0,-95.0,2709.0,1.0,-6.0,-6.0
1724512021445376909,-194.0,-87.0,2713.0,10.0,-16.0,-1.0
1724512021450381792,-188.0,-95.0,2700.0,5.0,-9.0,3.0
1724512021455356157,-188.0,-89.0,2701.0,2.0,-8.0,-1.0
1724512021460361040,-200.0,-86.0,2699.0,4.0,-7.0,3.0
1724512021465365923,-198.0,-88.0,2698.0,2.0,-2.0,-2.0
1724512021470370806,-202.0,-89.0,2712.0,12.0,-16.0,-1.0
1724512021475375689,-196.0,-89.0,2699.0,2.0,-10.0,-4.0
1724512021480380571,-190.0,-86.0,2699.0,-1.0,-10.0,-5.0
1724512021485354937,-184.0,-80.0,2708.0,15.0,-7.0,-2.0
1724512021490359819,-190.0,-92.0,2706.0,4.0,-11.0,0.0
1724512021495364702,-191.0,-95.0,2703.0,9.0,-10.0,3.0
1724512021500369585,-188.0,-90.0,2705.0,1.0,-4.0,-7.0
1724512021505374468,-185.0,-88.0,2707.0,11.0,-9.0,-1.0
1724512021510379351,-189.0,-91.0,2711.0,10.0,-6.0,-7.0
1724512021515353716,-192.0,-88.0,2714.0,8.0,-12.0,-2.0
1724512021520358599,-195.0,-86.0,2711.0,10.0,-14.0,-14.0
1724512021525363482,-202.0,-91.0,2701.0,1.0,-15.0,1.0
1724512021530368364,-189.0,-93.0,2703.0,0.0,-13.0,-2.0
1724512021535373247,-179.0,-84.0,2698.0,7.0,-17.0,-4.0
1724512021540378130,-191.0,-93.0,2705.0,2.0,-3.0,2.0
1724512021545352495,-190.0,-88.0,2706.0,9.0,-9.0,-5.0
1724512021550357378,-189.0,-88.0,2704.0,3.0,-5.0,-2.0
1724512021555362261,-191.0,-93.0,2697.0,3.0,-7.0,-1.0
1724512021560367144,-200.0,-97.0,2707.0,0.0,-3.0,0.0
1724512021565372026,-186.0,-90.0,2713.0,5.0,-11.0,1.0
1724512021570376909,-189.0,-86.0,2700.0,12.0,-8.0,-1.0
1724512021575381792,-194.0,-78.0,2706.0,3.0,-3.0,-4.0
1724512021580356157,-198.0,-87.0,2708.0,5.0,-10.0,-1.0
1724512021585361040,-191.0,-89.0,2700.0,4.0,-6.0,-9.0
1724512021590365923,-192.0,-88.0,2703.0,4.0,-17.0,4.0
1724512021595370806,-192.0,-94.0,2700.0,13.0,-11.0,-3.0
1724512021600375689,-195.0,-97.0,2705.0,1.0,-13.0,1.0
1724512021605380571,-183.0,-96.0,2715.0,6.0,-8.0,1.0
1724512021610354937,-187.0,-91.0,2707.0,5.0,-9.0,-3.0
1724512021615359819,-193.0,-88.0,2697.0,4.0,-7.0,-5.0
1724512021620364702,-190.0,-93.0,2705.0,5.0,-2.0,4.0
1724512021625369585,-194.0,-87.0,2717.0,-4.0,-12.0,-3.0
1724512021630374468,-198.0,-98.0,2700.0,13.0,-11.0,-1.0
1724512021635379351,-176.0,-95.0,2698.0,6.0,-14.0,-4.0
1724512021640353716,-183.0,-90.0,2704.0,2.0,-2.0,6.0
1724512021645358599,-194.0,-91.0,2707.0,2.0,-8.0,-3.0
1724512021650363482,-188.0,-79.0,2700.0,5.0,-11.0,-4.0
1724512021655368364,-191.0,-84.0,2705.0,6.0,-4.0,-6.0
1724512021660373247,-190.0,-88.0,2700.0,4.0,-13.0,-2.0
1724512021665378130,-190.0,-92.0,2708.0,7.0,-4.0,-2.0
1724512021670352495,-198.0,-102.0,2705.0,-4.0,-9.0,-5.0
1724512021675357378,-186.0,-96.0,2709.0,-4.0,-10.0,-5.0
1724512021680362261,-192.0,-85.0,2705.0,1.0,-12.0,-1.0
1724512021685367144,-185.0,-81.0,2709.0,6.0,-6.0,-1.0
1724512021690372026,-191.0,-93.0,2708.0,2.0,-15.0,0.0
1724512021695376909,-186.0,-91.0,2702.0,-3.0,-11.0,-5.0
1724512021700381792,-190.0,-83.0,2700.0,4.0,-17.0,4.0
1724512021705356157,-197.0,-74.0,2701.0,12.0,-12.0,-11.0
1724512021710361040,-189.0,-86.0,2698.0,2.0,-15.0,0.0
1724512021715365923,-195.0,-93.0,2707.0,9.0,-4.0,1.0
1724512021720370806,-183.0,-90.0,2706.0,5.0,-9.0,4.0
1724512021725375689,-194.0,-91.0,2713.0,6.0,-14.0,-3.0
1724512021730380571,-179.0,-87.0,2701.0,2.0,-12.0,0.0
1724512021735354937,-186.0,-93.0,2702.0,-3.0,-16.0,-2.0
1724512021740359819,-195.0,-83.0,2714.0,9.0,-5.0,-7.0
1724512021745364702,-193.0,-94.0,2704.0,0.0,-8.0,1.0
1724512021750369585,-192.0,-88.0,2708.0,7.0,-3.0,2.0
1724512021755374468,-187.0,-89.0,2700.0,2.0,-14.0,-5.0
1724512021760379351,-182.0,-86.0,2697.0,-1.0,-13.0,-5.0
1724512021765353716,-197.0,-84.0,2701.0,6.0,-9.0,-5.0
1724512021770358599,-205.0,-91.0,2704.0,4.0,-9.0,-3.0
1724512021775363482,-195.0,-98.0,2702.0,1.0,-10.0,-2.0
1724512021780368364,-193.0,-89.0,2713.0,10.0,-6.0,5.0
1724512021785373247,-188.0,-87.0,2709.0,4.0,-6.0,-9.0
1724512021790378130,-180.0,-94.0,2710.0,5.0,-9.0,-6.0
1724512021795352495,-194.0,-84.0,2710.0,5.0,-13.0,4.0
1724512021800357378,-189.0,-91.0,2703.0,3.0,-12.0,-4.0
1724512021805362261,-185.0,-89.0,2706.0,8.0,-9.0,-3.0
1724512021810367144,-204.0,-94.0,2714.0,4.0,-3.0,-5.0
1724512021815372026,-198.0,-90.0,2713.0,3.0,-7.0,2.0
1724512021820376909,-194.0,-87.0,2698.0,6.0,-7.0,1.0
1724512021825381792,-194.0,-84.0,2696.0,6.0,-6.0,0.0
1724512021830356157,-187.0,-86.0,2717.0,-2.0,-14.0,-1.0
1724512021835361040,-195.0,-87.0,2713.0,9.0,-5.0,-3.0
1724512021840365923,-194.0,-89.0,2714.0,-3.0,-6.0,-2.0
1724512021845370806,-193.0,-86.0,2705.0,0.0,-11.0,1.0
1724512021850375689,-185.0,-89.0,2712.0,1.0,-16.0,-1.0
1724512021855380571,-196.0,-100.0,2716.0,-1.0,-8.0,-8.0
1724512021860354937,-198.0,-95.0,2709.0,-3.0,-15.0,-1.0
1724512021865359819,-189.0,-84.0,2706.0,6.0,-9.0,4.0
1724512021870364702,-181.0,-93.0,2709.0,4.0,-2.0,-1.0
1724512021875369585,-195.0,-86.0,2698.0,5.0,-5.0,1.0
1724512021880374468,-193.0,-89.0,2705.0,3.0,-7.0,-4.0
1724512021885379351,-194.0,-93.0,2707.0,6.0,-4.0,2.0
1724512021890353716,-185.0,-85.0,2702.0,3.0,-8.0,-4.0
1724512021895358599,-193.0,-90.0,2706.0,7.0,-13.0,0.0
1724512021900363482,-186.0,-89.0,2709.0,8.0,-6.0,-4.0
1724512021905368364,-189.0,-93.0,2703.0,4.0,-16.0,-5.0
1724512021910373247,-195.0,-90.0,2698.0,2.0,-7.0,-2.0
1724512021915378130,-191.0,-89.0,2697.0,5.0,-5.0,-3.0
1724512021920352495,-191.0,-93.0,2706.0,5.0,-4.0,-2.0
1724512021925357378,-195.0,-93.0,2709.0,5.0,-14.0,-4.0
1724512021930362261,-187.0,-91.0,2702.0,0.0,-9.0,-1.0
1724512021935367144,-180.0,-97.0,2707.0,4.0,-12.0,-6.0
1724512021940372026,-184.0,-82.0,2707.0,1.0,-7.0,-3.0
1724512021945376909,-184.0,-91.0,2701.0,-1.0,-4.0,-3.0
1724512021950381792,-193.0,-98.0,2699.0,6.0,-10.0,-4.0
1724512021955356157,-185.0,-93.0,2705.0,2.0,-2.0,-2.0
1724512021960361040,-187.0,-87.0,2706.0,0.0,-3.0,-2.0
1724512021965365923,-189.0,-89.0,2707.0,5.0,3.0,0.0
1724512021970370806,-190.0,-90.0,2702.0,0.0,-5.0,-9.0
1724512021975375689,-199.0,-92.0,2710.0,5.0,-6.0,0.0
1724512021980380571,-197.0,-92.0,2717.0,0.0,-10.0,1.0
1724512021985354937,-196.0,-86.0,2709.0,4.0,-10.0,0.0
1724512021990359819,-197.0,-86.0,2704.0,5.0,-8.0,-1.0
1724512021995364702,-198.0,-100.0,2716.0,-3.0,-4.0,-3.0
1724512022000369585,-184.0,-93.0,2710.0,6.0,-13.0,1.0
1724512022005374468,-182.0,-86.0,2705.0,6.0,-6.0,-1.0
1724512022010379351,-189.0,-80.0,2716.0,0.0,-7.0,-3.0
1724512022015353716,-193.0,-84.0,2711.0,5.0,-5.0,-1.0
1724512022020358599,-186.0,-94.0,2698.0,5.0,-6.0,-5.0
1724512022025363482,-194.0,-98.0,2705.0,3.0,-7.0,-5.0
1724512022030368364,-189.0,-89.0,2705.0,6.0,-11.0,-4.0
1724512022035373247,-186.0,-87.0,2709.0,12.0,3.0,-3.0
1724512022040378130,-198.0,-92.0,2705.0,4.0,-6.0,-8.0
1724512022045352495,-197.0,-95.0,2704.0,6.0,-14.0,7.0
1724512022050357378,-192.0,-87.0,2700.0,5.0,-10.0,0.0
1724512022055362261,-196.0,-93.0,2708.0,4.0,-14.0,-2.0
1724512022060367144,-201.0,-88.0,2711.0,4.0,-6.0,-4.0
1724512022065372026,-187.0,-86.0,2717.0,-3.0,-8.0,-4.0
1724512022070376909,-197.0,-97.0,2697.0,6.0,-15.0,-3.0
1724512022075381792,-193.0,-96.0,2700.0,3.0,-7.0,-9.0
1724512022080356157,-190.0,-94.0,2704.0,10.0,-7.0,2.0
1724512022085361040,-202.0,-90.0,2703.0,8.0,-10.0,-6.0
1724512022090365923,-194.0,-97.0,2704.0,-6.0,-17.0,3.0
1724512022095370806,-192.0,-90.0,2707.0,-1.0,-5.0,-1.0
1724512022100375689,-192.0,-85.0,2703.0,9.0,-16.0,3.0
1724512022105380571,-190.0,-88.0,2704.0,14.0,-3.0,2.0
1724512022110354937,-196.0,-90.0,2707.0,-3.0,-9.0,-5.0
1724512022115359819,-195.0,-81.0,2702.0,5.0,-1.0,-2.0
1724512022120364702,-193.0,-82.0,2706.0,-4.0,-8.0,2.0
1724512022125369585,-190.0,-85.0,2704.0,5.0,-13.0,1.0
1724512022130374468,-185.0,-80.0,2709.0,1.0,-5.0,-7.0
1724512022135379351,-189.0,-84.0,2709.0,9.0,-18.0,-2.0
1724512022140353716,-192.0,-86.0,2707.0,0.0,-14.0,-2.0
1724512022145358599,-189.0,-97.0,2710.0,4.0,-4.0,-4.0
1724512022150363482,-197.0,-95.0,2706.0,-2.0,-10.0,-2.0
1724512022155368364,-199.0,-96.0,2704.0,1.0,-7.0,-3.0
1724512022160373247,-194.0,-96.0,2701.0,6.0,-12.0,3.0
1724512022165378130,-193.0,-89.0,2698.0,6.0,-4.0,0.0
1724512022170352495,-190.0,-87.0,2707.0,4.0,-19.0,-3.0
1724512022175357378,-186.0,-96.0,2704.0,2.0,-5.0,-6.0
1724512022180362261,-195.0,-85.0,2706.0,4.0,-10.0,6.0
1724512022185367144,-195.0,-87.0,2714.0,7.0,-6.0,-4.0
1724512022190372026,-199.0,-96.0,2706.0,6.0,-7.0,-5.0
1724512022195376909,-186.0,-96.0,2701.0,11.0,-7.0,-5.0
1724512022200381792,-180.0,-87.0,2711.0,0.0,-4.0,3.0
1724512022205356157,-188.0,-83.0,2704.0,4.0,-10.0,5.0
1724512022210361040,-193.0,-92.0,2707.0,4.0,-6.0,-2.0
1724512022215365923,-184.0,-95.0,2704.0,4.0,-12.0,0.0
1724512022220370806,-194.0,-98.0,2704.0,0.0,-14.0,-2.0
1724512022225375689,-187.0,-85.0,2704.0,6.0,-8.0,-2.0
1724512022230380571,-184.0,-83.0,2691.0,10.0,-6.0,-4.0
1724512022235354937,-186.0,-98.0,2704.0,3.0,-5.0,-3.0
1724512022240359819,-201.0,-92.0,2710.0,5.0,-6.0,-6.0
1724512022245364702,-184.0,-88.0,2708.0,5.0,-6.0,2.0
1724512022250369585,-186.0,-90.0,2700.0,5.0,-11.0,-6.0
1724512022255374468,-190.0,-91.0,2703.0,2.0,-20.0,0.0
1724512022260379351,-191.0,-85.0,2709.0,-2.0,-5.0,-1.0
1724512022265353716,-193.0,-83.0,2704.0,-5.0,-7.0,5.0
1724512022270358599,-207.0,-87.0,2702.0,9.0,-15.0,-4.0
1724512022275363482,-196.0,-88.0,2715.0,2.0,-9.0,-2.0
1724512022280368364,-197.0,-87.0,2703.0,-1.0,-14.0,-1.0
1724512022285373247,-204.0,-91.0,2699.0,6.0,-10.0,-2.0
1724512022290378130,-186.0,-96.0,2713.0,5.0,-2.0,-9.0
1724512022295352495,-188.0,-94.0,2714.0,10.0,-17.0,-3.0
1724512022300357378,-193.0,-95.0,2713.0,9.0,-13.0,-1.0
1724512022305362261,-186.0,-98.0,2707.0,5.0,-10.0,-5.0
1724512022310367144,-190.0,-90.0,2700.0,5.0,-5.0,-4.0
1724512022315372026,-192.0,-87.0,2705.0,1.0,-11.0,4.0
1724512022320376909,-197.0,-90.0,2704.0,6.0,-5.0,-7.0
1724512022325381792,-183.0,-90.0,2702.0,6.0,-5.0,-1.0
1724512022330356157,-190.0,-91.0,2708.0,0.0,-9.0,0.0
1724512022335361040,-196.0,-91.0,2710.0,-4.0,-13.0,-4.0
1724512022340365923,-197.0,-85.0,2708.0,3.0,-6.0,3.0
1724512022345370806,-190.0,-79.0,2703.0,3.0,-9.0,-4.0
1724512022350375689,-191.0,-90.0,2700.0,2.0,-19.0,-7.0
1724512022355380571,-185.0,-83.0,2702.0,0.0,-12.0,-1.0
1724512022360354937,-181.0,-86.0,2714.0,8.0,-9.0,1.0
1724512022365359819,-198.0,-85.0,2711.0,8.0,-10.0,-1.0
1724512022370364702,-195.0,-94.0,2702.0,7.0,-7.0,2.0
1724512022375369585,-190.0,-88.0,2705.0,5.0,-11.0,-7.0
1724512022380374468,-190.0,-88.0,2705.0,4.0,-11.0,-3.0
1724512022385379351,-203.0,-85.0,2707.0,5.0,-7.0,6.0
1724512022390353716,-190.0,-81.0,2712.0,5.0,-10.0,-6.0
1724512022395358599,-197.0,-82.0,2705.0,7.0,-14.0,-3.0
1724512022400363482,-196.0,-98.0,2709.0,7.0,-11.0,-1.0
1724512022405368364,-195.0,-89.0,2714.0,6.0,-11.0,-1.0
1724512022410373247,-194.0,-83.0,2705.0,7.0,-11.0,-3.0
1724512022415378130,-196.0,-87.0,2694.0,3.0,-17.0,6.0
1724512022420352495,-197.0,-81.0,2702.0,9.0,-3.0,0.0
1724512022425357378,-189.0,-97.0,2700.0,2.0,-3.0,0.0
1724512022430362261,-194.0,-92.0,2703.0,3.0,-6.0,-8.0
1724512022435367144,-193.0,-93.0,2706.0,6.0,-10.0,5.0
1724512022440372026,-193.0,-92.0,2707.0,-2.0,-6.0,-1.0
1724512022445376909,-195.0,-97.0,2706.0,2.0,-11.0,-6.0
1724512022450381792,-199.0,-99.0,2713.0,6.0,-6.0,-2.0
1724512022455356157,-192.0,-92.0,2711.0,1.0,-6.0,6.0
1724512022460361040,-191.0,-82.0,2708.0,7.0,-5.0,-5.0
1724512022465365923,-197.0,-95.0,2704.0,5.0,-6.0,-2.0
1724512022470370806,-190.0,-107.0,2699.0,-1.0,-6.0,2.0
1724512022475375689,-195.0,-91.0,2700.0,3.0,-7.0,4.0
1724512022480380571,-198.0,-98.0,2702.0,3.0,-5.0,-2.0
1724512022485354937,-189.0,-94.0,2698.0,-3.0,-11.0,4.0
1724512022490359819,-199.0,-95.0,2702.0,5.0,-17.0,-7.0
1724512022495364702,-188.0,-77.0,2702.0,0.0,0.0,-3.0
1724512022500369585,-190.0,-77.0,2705.0,3.0,-10.0,-1.0
1724512022505374468,-192.0,-89.0,2703.0,8.0,-9.0,-7.0
1724512022510379351,-193.0,-86.0,2706.0,6.0,-4.0,0.0
1724512022515353716,-195.0,-92.0,2714.0,3.0,-9.0,-2.0
1724512022520358599,-187.0,-88.0,2713.0,-1.0,-2.0,-1.0
1724512022525363482,-193.0,-85.0,2713.0,3.0,-14.0,3.0
1724512022530368364,-196.0,-92.0,2704.0,-3.0,-4.0,-4.0
1724512022535373247,-186.0,-92.0,2712.0,2.0,-9.0,2.0
1724512022540378130,-183.0,-96.0,2712.0,1.0,-5.0,-6.0
1724512022545352495,-196.0,-82.0,2695.0,7.0,-6.0,-5.0
1724512022550357378,-199.0,-89.0,2711.0,3.0,-12.0,3.0
1724512022555362261,-185.0,-91.0,2719.0,9.0,-6.0,-1.0
1724512022560367144,-185.0,-92.0,2703.0,11.0,1.0,-6.0
1724512022565372026,-194.0,-89.0,2710.0,1.0,-13.0,-3.0
1724512022570376909,-195.0,-93.0,2704.0,2.0,-7.0,1.0
1724512022575381792,-194.0,-93.0,2707.0,-1.0,-4.0,5.0
1724512022580356157,-197.0,-82.0,2702.0,2.0,-5.0,-8.0
1724512022585361040,-196.0,-93.0,2704.0,4.0,-9.0,1.0
1724512022590365923,-192.0,-91.0,2713.0,9.0,2.0,-3.0
1724512022595370806,-183.0,-84.0,2709.0,0.0,-6.0,1.0
1724512022600375689,-184.0,-87.0,2705.0,-5.0,-6.0,1.0
1724512022605380571,-195.0,-87.0,2714.0,1.0,-6.0,0.0
1724512022610354937,-189.0,-87.0,2705.0,10.0,-6.0,-2.0
1724512022615359819,-196.0,-89.0,2704.0,0.0,-5.0,3.0
1724512022620364702,-188.0,-87.0,2706.0,1.0,-16.0,-2.0
1724512022625369585,-192.0,-79.0,2704.0,1.0,-10.0,-2.0
1724512022630374468,-186.0,-86.0,2706.0,2.0,-8.0,-1.0
1724512022635379351,-191.0,-96.0,2709.0,9.0,-4.0,-3.0
1724512022640353716,-192.0,-94.0,2711.0,2.0,-8.0,2.0
1724512022645358599,-194.0,-89.0,2706.0,5.0,-10.0,2.0
1724512022650363482,-198.0,-100.0,2709.0,-4.0,-5.0,-9.0
1724512022655368364,-192.0,-93.0,2708.0,2.0,-2.0,-5.0
1724512022660373247,-196.0,-92.0,2704.0,3.0,1.0,2.0
1724512022665378130,-189.0,-98.0,2707.0,8.0,-10.0,5.0
1724512022670352495,-192.0,-89.0,2709.0,-1.0,-2.0,0.0
1724512022675357378,-196.0,-86.0,2706.0,6.0,-14.0,-1.0
1724512022680362261,-196.0,-93.0,2703.0,1.0,-12.0,-6.0
1724512022685367144,-189.0,-95.0,2705.0,3.0,-10.0,0.0
1724512022690372026,-190.0,-94.0,2700.0,7.0,-9.0,-3.0
1724512022695376909,-190.0,-90.0,2694.0,5.0,-6.0,-5.0
1724512022700381792,-183.0,-85.0,2698.0,4.0,-9.0,-4.0
1724512022705356157,-191.0,-88.0,2710.0,4.0,-15.0,-2.0
1724512022710361040,-192.0,-87.0,2702.0,7.0,-4.0,-3.0
1724512022715365923,-185.0,-87.0,2702.0,2.0,-16.0,0.0
1724512022720370806,-183.0,-85.0,2707.0,7.0,-13.0,-6.0
1724512022725375689,-193.0,-90.0,2709.0,0.0,-7.0,-6.0
1724512022730380571,-192.0,-104.0,2701.0,2.0,-11.0,-1.0
1724512022735354937,-190.0,-90.0,2710.0,-2.0,-3.0,-2.0
1724512022740359819,-203.0,-84.0,2711.0,6.0,-11.0,-3.0
1724512022745364702,-198.0,-94.0,2712.0,5.0,-7.0,1.0
1724512022750369585,-184.0,-83.0,2706.0,-1.0,-6.0,-3.0
1724512022755374468,-198.0,-86.0,2702.0,5.0,-9.0,-5.0
1724512022760379351,-191.0,-87.0,2690.0,4.0,-7.0,1.0
1724512022765353716,-187.0,-84.0,2696.0,3.0,2.0,-1.0
1724512022770358599,-190.0,-82.0,2704.0,3.0,-9.0,4.0
1724512022775363482,-200.0,-85.0,2698.0,6.0,-4.0,-5.0
1724512022780368364,-194.0,-86.0,2701.0,2.0,-5.0,-3.0
1724512022785373247,-185.0,-87.0,2709.0,1.0,-6.0,8.0
1724512022790378130,-181.0,-82.0,2712.0,2.0,-7.0,0.0
1724512022795352495,-188.0,-87.0,2699.0,1.0,-6.0,-7.0
1724512022800357378,-190.0,-88.0,2700.0,5.0,-19.0,4.0
1724512022805362261,-194.0,-99.0,2699.0,-1.0,-7.0,1.0
1724512022810367144,-192.0,-94.0,2701.0,12.0,-10.0,-4.0
1724512022815372026,-189.0,-91.0,2703.0,4.0,-9.0,-8.0
1724512022820376909,-192.0,-100.0,2701.0,2.0,-7.0,-7.0
1724512022825381792,-192.0,-88.0,2710.0,6.0,-16.0,-1.0
1724512022830356157,-196.0,-86.0,2719.0,-1.0,-2.0,-3.0
1724512022835361040,-186.0,-90.0,2695.0,4.0,-4.0,-2.0
1724512022840365923,-198.0,-83.0,2709.0,1.0,-12.0,-7.0
1724512022845370806,-190.0,-86.0,2715.0,-5.0,-12.0,5.0
1724512022850375689,-187.0,-82.0,2703.0,1.0,-3.0,2.0
1724512022855380571,-192.0,-79.0,2696.0,6.0,-7.0,-2.0
1724512022860354937,-193.0,-90.0,2710.0,6.0,-5.0,-1.0
1724512022865359819,-192.0,-88.0,2703.0,8.0,-7.0,5.0
1724512022870364702,-198.0,-90.0,2706.0,7.0,-7.0,-3.0
1724512022875369585,-195.0,-90.0,2706.0,0.0,-9.0,-7.0
1724512022880374468,-191.0,-89.0,2708.0,4.0,-11.0,4.0
1724512022885379351,-188.0,-89.0,2701.0,5.0,-3.0,1.0
1724512022890353716,-192.0,-93.0,2704.0,1.0,-15.0,-4.0
1724512022895358599,-202.0,-84.0,2713.0,3.0,-9.0,3.0
1724512022900363482,-197.0,-88.0,2698.0,3.0,-5.0,-9.0
1724512022905368364,-194.0,-83.0,2707.0,3.0,-11.0,-3.0
1724512022910373247,-190.0,-83.0,2698.0,2.0,-10.0,-6.0
1724512022915378130,-197.0,-90.0,2700.0,6.0,-15.0,-1.0
1724512022920352495,-190.0,-95.0,2705.0,-1.0,-18.0,-3.0
1724512022925357378,-178.0,-85.0,2706.0,7.0,-9.0,0.0
1724512022930362261,-195.0,-92.0,2700.0,2.0,-9.0,-5.0
1724512022935367144,-190.0,-93.0,2700.0,3.0,-17.0,-6.0
1724512022940372026,-183.0,-77.0,2701.0,8.0,-10.0,-1.0
1724512022945376909,-190.0,-89.0,2691.0,10.0,-13.0,-6.0
1724512022950381792,-202.0,-94.0,2697.0,1.0,-1.0,4.0
1724512022955356157,-190.0,-93.0,2706.0,4.0,-11.0,-6.0
1724512022960361040,-189.0,-83.0,2700.0,2.0,2.0,-4.0
1724512022965365923,-206.0,-91.0,2706.0,4.0,-8.0,0.0
1724512022970370806,-192.0,-86.0,2705.0,6.0,-9.0,-2.0
1724512022975375689,-187.0,-92.0,2704.0,-2.0,-7.0,3.0
1724512022980380571,-192.0,-89.0,2708.0,8.0,2.0,-3.0
1724512022985354937,-195.0,-89.0,2708.0,5.0,-14.0,1.0
1724512022990359819,-189.0,-88.0,2701.0,3.0,-10.0,-2.0
1724512022995364702,-188.0,-95.0,2715.0,11.0,-8.0,-11.0
1724512023000369585,-187.0,-84.0,2710.0,-3.0,-8.0,0.0
1724512023005374468,-197.0,-91.0,2708.0,9.0,-9.0,6.0
1724512023010379351,-183.0,-92.0,2707.0,1.0,-5.0,-4.0
1724512023015353716,-191.0,-89.0,2700.0,3.0,-15.0,-3.0
1724512023020358599,-194.0,-87.0,2705.0,1.0,-6.0,-1.0
1724512023025363482,-191.0,-81.0,2702.0,6.0,-17.0,-3.0
1724512023030368364,-196.0,-81.0,2700.0,5.0,-4.0,1.0
1724512023035373247,-192.0,-87.0,2710.0,2.0,-16.0,-9.0
1724512023040378130,-190.0,-92.0,2707.0,9.0,-7.0,1.0
1724512023045352495,-194.0,-92.0,2712.0,-5.0,-5.0,-8.0
1724512023050357378,-196.0,-94.0,2709.0,14.0,-7.0,-2.0
1724512023055362261,-193.0,-80.0,2713.0,0.0,-12.0,-5.0
1724512023060367144,-189.0,-85.0,2704.0,-1.0,-6.0,4.0
1724512023065372026,-196.0,-80.0,2705.0,2.0,0.0,0.0
1724512023070376909,-200.0,-85.0,2707.0,2.0,1.0,-1.0
1724512023075381792,-194.0,-85.0,2702.0,-4.0,-12.0,-1.0
1724512023080356157,-189.0,-89.0,2699.0,8.0,-3.0,1.0
1724512023085361040,-195.0,-84.0,2714.0,10.0,-6.0,-8.0
1724512023090365923,-192.0,-95.0,2702.0,13.0,-10.0,-2.0
1724512023095370806,-191.0,-73.0,2703.0,10.0,-7.0,1.0
1724512023100375689,-195.0,-84.0,2716.0,6.0,-5.0,-2.0
1724512023105380571,-183.0,-97.0,2710.0,0.0,-1.0,2.0
1724512023110354937,-190.0,-89.0,2698.0,-1.0,-8.0,0.0
1724512023115359819,-188.0,-90.0,2704.0,0.0,-5.0,0.0
1724512023120364702,-193.0,-97.0,2710.0,2.0,-11.0,-2.0
1724512023125369585,-206.0,-82.0,2697.0,3.0,-17.0,-5.0
1724512023130374468,-193.0,-89.0,2700.0,10.0,-16.0,-5.0
1724512023135379351,-180.0,-99.0,2722.0,-1.0,-13.0,-2.0
1724512023140353716,-188.0,-95.0,2707.0,9.0,-10.0,-1.0
1724512023145358599,-190.0,-93.0,2702.0,14.0,-5.0,3.0
1724512023150363482,-191.0,-86.0,2700.0,1.0,-3.0,-2.0
1724512023155368364,-196.0,-89.0,2700.0,11.0,-8.0,-3.0
1724512023160373247,-199.0,-87.0,2702.0,3.0,-6.0,4.0
1724512023165378130,-190.0,-92.0,2702.0,0.0,-15.0,1.0
1724512023170352495,-192.0,-84.0,2693.0,2.0,-10.0,2.0
1724512023175357378,-198.0,-90.0,2708.0,8.0,-7.0,-4.0
1724512023180362261,-197.0,-93.0,2707.0,-7.0,-5.0,-1.0
1724512023185367144,-195.0,-98.0,2709.0,9.0,-11.0,-5.0
1724512023190372026,-184.0,-97.0,2711.0,0.0,-10.0,3.0
1724512023195376909,-190.0,-88.0,2711.0,2.0,-5.0,-2.0
1724512023200381792,-182.0,-86.0,2705.0,2.0,-5.0,0.0
1724512023205356157,-196.0,-93.0,2702.0,5.0,-6.0,-4.0
1724512023210361040,-192.0,-91.0,2705.0,-3.0,-3.0,-4.0
1724512023215365923,-183.0,-96.0,2713.0,5.0,-18.0,-5.0
1724512023220370806,-191.0,-87.0,2711.0,-2.0,-11.0,-1.0
1724512023225375689,-190.0,-80.0,2721.0,4.0,-6.0,-2.0
1724512023230380571,-191.0,-89.0,2699.0,-4.0,-2.0,3.0
1724512023235354937,-199.0,-97.0,2702.0,0.0,-6.0,-4.0
1724512023240359819,-198.0,-87.0,2697.0,3.0,-6.0,-4.0
1724512023245364702,-191.0,-84.0,2700.0,7.0,-7.0,2.0
1724512023250369585,-188.0,-82.0,2704.0,1.0,-12.0,-3.0
1724512023255374468,-188.0,-89.0,2708.0,5.0,-12.0,1.0
1724512023260379351,-192.0,-93.0,2702.0,-7.0,-6.0,-5.0
1724512023265353716,-192.0,-86.0,2710.0,8.0,-5.0,8.0
1724512023270358599,-191.0,-81.0,2705.0,-1.0,-9.0,-6.0
1724512023275363482,-192.0,-87.0,2697.0,11.0,-7.0,-5.0
1724512023280368364,-196.0,-79.0,2709.0,3.0,-15.0,-4.0
1724512023285373247,-209.0,-89.0,2704.0,-5.0,-3.0,-1.0
1724512023290378130,-203.0,-89.0,2701.0,-5.0,-6.0,-6.0
1724512023295352495,-188.0,-92.0,2711.0,8.0,-6.0,4.0
1724512023300357378,-192.0,-85.0,2706.0,4.0,-12.0,-5.0
1724512023305362261,-194.0,-85.0,2709.0,7.0,-9.0,-6.0
1724512023310367144,-197.0,-90.0,2705.0,7.0,-5.0,3.0
1724512023315372026,-206.0,-88.0,2713.0,6.0,-17.0,-3.0
1724512023320376909,-193.0,-87.0,2700.0,5.0,-4.0,0.0
1724512023325381792,-195.0,-94.0,2708.0,8.0,-12.0,0.0
1724512023330356157,-189.0,-87.0,2696.0,6.0,-4.0,-7.0
1724512023335361040,-188.0,-88.0,2708.0,8.0,-9.0,2.0
1724512023340365923,-186.0,-91.0,2708.0,3.0,-9.0,-1.0
1724512023345370806,-188.0,-81.0,2700.0,2.0,-14.0,-4.0
1724512023350375689,-189.0,-88.0,2710.0,7.0,-12.0,1.0
1724512023355380571,-184.0,-88.0,2707.0,4.0,-14.0,-6.0
1724512023360354937,-195.0,-89.0,2697.0,2.0,-6.0,5.0
1724512023365359819,-197.0,-98.0,2702.0,6.0,-9.0,-4.0
1724512023370364702,-190.0,-95.0,2700.0,15.0,-16.0,0.0
1724512023375369585,-191.0,-85.0,2708.0,-2.0,-11.0,2.0
1724512023380374468,-204.0,-89.0,2712.0,4.0,-17.0,-6.0
1724512023385379351,-184.0,-92.0,2707.0,4.0,-5.0,-2.0
1724512023390353716,-183.0,-94.0,2694.0,-2.0,-5.0,3.0
1724512023395358599,-192.0,-90.0,2701.0,9.0,-16.0,-2.0
1724512023400363482,-185.0,-92.0,2706.0,1.0,-8.0,-1.0
1724512023405368364,-185.0,-92.0,2706.0,6.0,4.0,-1.0
1724512023410373247,-176.0,-91.0,2718.0,0.0,-13.0,1.0
1724512023415378130,-199.0,-93.0,2698.0,3.0,-4.0,1.0
1724512023420352495,-200.0,-90.0,2704.0,7.0,-4.0,-2.0
1724512023425357378,-180.0,-87.0,2708.0,10.0,-8.0,-2.0
1724512023430362261,-194.0,-93.0,2706.0,5.0,-8.0,-2.0
1724512023435367144,-195.0,-92.0,2706.0,3.0,-18.0,-2.0
1724512023440372026,-195.0,-88.0,2704.0,5.0,-6.0,1.0
1724512023445376909,-196.0,-96.0,2696.0,4.0,-5.0,-5.0
1724512023450381792,-196.0,-90.0,2706.0,8.0,-14.0,7.0
1724512023455356157,-192.0,-82.0,2702.0,-1.0,-14.0,-3.0
1724512023460361040,-190.0,-86.0,2698.0,11.0,-12.0,-3.0
1724512023465365923,-186.0,-87.0,2699.0,3.0,-9.0,-2.0
1724512023470370806,-187.0,-95.0,2701.0,2.0,-4.0,-4.0
1724512023475375689,-188.0,-91.0,2710.0,3.0,-8.0,5.0
1724512023480380571,-199.0,-84.0,2704.0,0.0,-12.0,-1.0
1724512023485354937,-198.0,-93.0,2704.0,6.0,-9.0,4.0
1724512023490359819,-196.0,-88.0,2706.0,-1.0,-2.0,-6.0
1724512023495364702,-189.0,-92.0,2708.0,5.0,-10.0,-5.0
1724512023500369585,-188.0,-98.0,2705.0,1.0,-9.0,2.0
1724512023505374468,-190.0,-88.0,2698.0,3.0,-5.0,1.0
1724512023510379351,-192.0,-95.0,2695.0,-1.0,-2.0,-2.0
1724512023515353716,-195.0,-84.0,2704.0,4.0,-7.0,4.0
1724512023520358599,-187.0,-93.0,2705.0,7.0,-14.0,1.0
1724512023525363482,-189.0,-90.0,2709.0,13.0,-3.0,-3.0
1724512023530368364,-191.0,-90.0,2705.0,7.0,-8.0,-4.0
1724512023535373247,-195.0,-82.0,2704.0,5.0,-8.0,-5.0
1724512023540378130,-192.0,-85.0,2707.0,4.0,-8.0,-1.0
1724512023545352495,-192.0,-84.0,2706.0,6.0,-20.0,-1.0
1724512023550357378,-201.0,-88.0,2711.0,5.0,-14.0,-1.0
1724512023555362261,-189.0,-79.0,2709.0,12.0,-19.0,-6.0
1724512023560367144,-194.0,-81.0,2712.0,-2.0,-7.0,0.0
1724512023565372026,-196.0,-80.0,2705.0,8.0,-13.0,-8.0
1724512023570376909,-201.0,-92.0,2705.0,3.0,-3.0,-2.0
1724512023575381792,-197.0,-84.0,2706.0,-4.0,-12.0,4.0
1724512023580356157,-199.0,-87.0,2710.0,8.0,-9.0,-15.0
1724512023585361040,-202.0,-88.0,2706.0,4.0,-8.0,5.0
1724512023590365923,-193.0,-87.0,2709.0,6.0,-13.0,-2.0
1724512023595370806,-190.0,-90.0,2712.0,4.0,-10.0,3.0
1724512023600375689,-191.0,-94.0,2705.0,5.0,-9.0,-4.0
1724512023605380571,-195.0,-79.0,2705.0,6.0,-11.0,2.0
1724512023610354937,-195.0,-80.0,2711.0,4.0,-13.0,0.0
1724512023615359819,-194.0,-88.0,2706.0,2.0,-10.0,-4.0
1724512023620364702,-199.0,-85.0,2703.0,4.0,6.0,-3.0
1724512023625369585,-192.0,-97.0,2698.0,6.0,-15.0,0.0
1724512023630374468,-189.0,-91.0,2702.0,1.0,-7.0,7.0
1724512023635379351,-191.0,-94.0,2706.0,11.0,-12.0,-12.0
1724512023640353716,-192.0,-91.0,2706.0,2.0,-11.0,1.0
1724512023645358599,-189.0,-91.0,2710.0,5.0,-4.0,-1.0
1724512023650363482,-196.0,-92.0,2708.0,1.0,-7.0,-3.0
1724512023655368364,-195.0,-90.0,2712.0,-1.0,-9.0,-2.0
1724512023660373247,-187.0,-88.0,2712.0,2.0,-16.0,-1.0
1724512023665378130,-191.0,-96.0,2714.0,5.0,-11.0,0.0
1724512023670352495,-189.0,-88.0,2715.0,1.0,-6.0,-4.0
1724512023675357378,-189.0,-92.0,2705.0,1.0,-13.0,-4.0
1724512023680362261,-191.0,-87.0,2702.0,-1.0,-10.0,-5.0
1724512023685367144,-195.0,-84.0,2706.0,8.0,-8.0,1.0
1724512023690372026,-190.0,-89.0,2703.0,5.0,-5.0,-3.0
1724512023695376909,-190.0,-85.0,2702.0,-1.0,-8.0,-3.0
1724512023700381792,-193.0,-80.0,2704.0,4.0,-5.0,-7.0
1724512023705356157,-209.0,-93.0,2702.0,-3.0,2.0,-1.0
1724512023710361040,-202.0,-95.0,2700.0,3.0,-5.0,-4.0
1724512023715365923,-194.0,-83.0,2703.0,-2.0,0.0,-1.0
1724512023720370806,-190.0,-85.0,2698.0,5.0,-11.0,2.0
1724512023725375689,-193.0,-94.0,2707.0,-2.0,-11.0,0.0
1724512023730380571,-191.0,-88.0,2702.0,13.0,-7.0,-4.0
1724512023735354937,-194.0,-90.0,2700.0,5.0,-12.0,-3.0
1724512023740359819,-188.0,-91.0,2702.0,1.0,-6.0,3.0
1724512023745364702,-196.0,-93.0,2701.0,0.0,-9.0,-1.0
1724512023750369585,-190.0,-87.0,2701.0,-3.0,-3.0,2.0
1724512023755374468,-194.0,-77.0,2705.0,5.0,-11.0,-3.0
1724512023760379351,-189.0,-89.0,2717.0,-1.0,-14.0,-4.0
1724512023765353716,-197.0,-92.0,2706.0,8.0,-12.0,-6.0
1724512023770358599,-192.0,-92.0,2712.0,11.0,-7.0,-2.0
1724512023775363482,-191.0,-85.0,2716.0,2.0,-8.0,1.0
1724512023780368364,-181.0,-89.0,2704.0,9.0,-10.0,3.0
1724512023785373247,-190.0,-92.0,2705.0,8.0,-8.0,-4.0
1724512023790378130,-192.0,-87.0,2694.0,-8.0,-4.0,1.0
1724512023795352495,-189.0,-91.0,2691.0,-2.0,-6.0,3.0
1724512023800357378,-188.0,-86.0,2699.0,7.0,-6.0,0.0
1724512023805362261,-190.0,-89.0,2710.0,-5.0,-17.0,3.0
1724512023810367144,-205.0,-89.0,2706.0,3.0,-12.0,-5.0
1724512023815372026,-186.0,-88.0,2710.0,0.0,-4.0,-2.0
1724512023820376909,-190.0,-95.0,2705.0,1.0,-4.0,-1.0
1724512023825381792,-194.0,-96.0,2702.0,5.0,3.0,1.0
1724512023830356157,-188.0,-96.0,2710.0,0.0,-13.0,1.0
1724512023835361040,-190.0,-94.0,2712.0,0.0,-4.0,-5.0
1724512023840365923,-182.0,-76.0,2711.0,1.0,-9.0,-3.0
1724512023845370806,-190.0,-92.0,2700.0,1.0,-8.0,-7.0
1724512023850375689,-198.0,-89.0,2710.0,2.0,-5.0,0.0
1724512023855380571,-189.0,-90.0,2706.0,6.0,-12.0,-3.0
1724512023860354937,-193.0,-88.0,2699.0,4.0,-3.0,2.0
1724512023865359819,-189.0,-89.0,2703.0,-6.0,-6.0,-3.0
1724512023870364702,-189.0,-99.0,2706.0,-5.0,-10.0,4.0
1724512023875369585,-196.0,-94.0,2705.0,12.0,-9.0,-5.0
1724512023880374468,-191.0,-78.0,2704.0,-1.0,-15.0,-2.0
1724512023885379351,-187.0,-92.0,2701.0,2.0,-12.0,-3.0
1724512023890353716,-191.0,-95.0,2703.0,4.0,-9.0,2.0
1724512023895358599,-192.0,-85.0,2701.0,5.0,-16.0,0.0
1724512023900363482,-187.0,-91.0,2699.0,-2.0,-6.0,1.0
1724512023905368364,-185.0,-88.0,2704.0,1.0,-9.0,-4.0
1724512023910373247,-201.0,-85.0,2705.0,3.0,-6.0,-5.0
1724512023915378130,-204.0,-93.0,2711.0,6.0,-5.0,2.0
1724512023920352495,-188.0,-96.0,2700.0,7.0,-1.0,-1.0
1724512023925357378,-185.0,-89.0,2702.0,-3.0,-17.0,-6.0
1724512023930362261,-187.0,-86.0,2690.0,4.0,-10.0,-5.0
1724512023935367144,-190.0,-92.0,2709.0,1.0,-11.0,0.0
1724512023940372026,-189.0,-88.0,2712.0,1.0,-10.0,3.0
1724512023945376909,-195.0,-80.0,2710.0,3.0,-9.0,2.0
1724512023950381792,-190.0,-97.0,2710.0,-1.0,-4.0,1.0
1724512023955356157,-197.0,-86.0,2709.0,5.0,-8.0,-1.0
1724512023960361040,-197.0,-81.0,2713.0,2.0,-8.0,-4.0
1724512023965365923,-191.0,-88.0,2702.0,0.0,-16.0,1.0
1724512023970370806,-198.0,-90.0,2703.0,5.0,-7.0,-5.0
1724512023975375689,-192.0,-93.0,2702.0,5.0,-10.0,1.0
1724512023980380571,-182.0,-90.0,2717.0,0.0,-5.0,0.0
1724512023985354937,-190.0,-85.0,2703.0,2.0,-9.0,2.0
1724512023990359819,-195.0,-95.0,2703.0,3.0,1.0,3.0
1724512023995364702,-184.0,-84.0,2706.0,8.0,-16.0,-5.0
1724512024000369585,-194.0,-81.0,2706.0,-1.0,-10.0,0.0
1724512024005374468,-199.0,-85.0,2692.0,5.0,-8.0,-8.0
1724512024010379351,-183.0,-92.0,2698.0,10.0,-14.0,-2.0
1724512024015353716,-189.0,-87.0,2706.0,1.0,-16.0,-5.0
1724512024020358599,-188.0,-75.0,2711.0,6.0,-12.0,4.0
1724512024025363482,-183.0,-86.0,2706.0,4.0,-14.0,-8.0
1724512024030368364,-196.0,-92.0,2702.0,2.0,-14.0,3.0
1724512024035373247,-190.0,-95.0,2707.0,7.0,-13.0,-10.0
1724512024040378130,-196.0,-82.0,2705.0,0.0,-6.0,-3.0
1724512024045352495,-189.0,-84.0,2702.0,0.0,-5.0,-4.0
1724512024050357378,-189.0,-92.0,2706.0,3.0,-7.0,-2.0
1724512024055362261,-190.0,-88.0,2707.0,-2.0,-6.0,-7.0
1724512024060367144,-197.0,-88.0,2713.0,3.0,-4.0,0.0
1724512024065372026,-200.0,-96.0,2712.0,2.0,-11.0,0.0
1724512024070376909,-185.0,-86.0,2703.0,-2.0,-12.0,3.0
1724512024075381792,-189.0,-86.0,2706.0,0.0,-10.0,2.0
1724512024080356157,-194.0,-91.0,2705.0,3.0,-4.0,2.0
1724512024085361040,-194.0,-88.0,2706.0,2.0,-5.0,0.0
1724512024090365923,-187.0,-83.0,2707.0,-1.0,-7.0,-3.0
1724512024095370806,-199.0,-86.0,2714.0,1.0,-14.0,1.0
1724512024100375689,-191.0,-86.0,2701.0,3.0,-12.0,-1.0
1724512024105380571,-187.0,-86.0,2706.0,-3.0,-5.0,-3.0
1724512024110354937,-198.0,-88.0,2714.0,3.0,-5.0,-2.0
1724512024115359819,-196.0,-101.0,2699.0,5.0,-11.0,0.0
1724512024120364702,-199.0,-93.0,2688.0,1.0,-13.0,-3.0
1724512024125369585,-199.0,-90.0,2700.0,-2.0,-17.0,0.0
1724512024130374468,-195.0,-84.0,2717.0,-5.0,-5.0,0.0
1724512024135379351,-191.0,-94.0,2705.0,10.0,-8.0,-4.0
1724512024140353716,-187.0,-94.0,2718.0,6.0,-3.0,2.0
1724512024145358599,-191.0,-82.0,2721.0,2.0,-1.0,-5.0
1724512024150363482,-193.0,-82.0,2714.0,2.0,-12.0,-2.0
1724512024155368364,-189.0,-87.0,2719.0,5.0,-13.0,1.0
1724512024160373247,-198.0,-92.0,2721.0,5.0,-11.0,-1.0
1724512024165378130,-190.0,-96.0,2698.0,14.0,-3.0,-2.0
1724512024170352495,-186.0,-95.0,2686.0,5.0,-9.0,0.0
1724512024175357378,-199.0,-86.0,2687.0,9.0,-9.0,1.0
1724512024180362261,-196.0,-91.0,2699.0,4.0,-13.0,-7.0
1724512024185367144,-197.0,-94.0,2696.0,4.0,-13.0,3.0
1724512024190372026,-187.0,-93.0,2690.0,-1.0,-6.0,-4.0
1724512024195376909,-185.0,-90.0,2712.0,7.0,-5.0,-2.0
1724512024200381792,-197.0,-96.0,2705.0,-4.0,-12.0,2.0
1724512024205356157,-194.0,-92.0,2706.0,2.0,-5.0,-1.0
1724512024210361040,-188.0,-91.0,2713.0,2.0,-5.0,-1.0
1724512024215365923,-194.0,-90.0,2708.0,0.0,-7.0,-2.0
1724512024220370806,-191.0,-82.0,2722.0,-6.0,-9.0,-1.0
1724512024225375689,-189.0,-86.0,2715.0,12.0,-8.0,0.0
1724512024230380571,-183.0,-93.0,2707.0,5.0,-11.0,-2.0
1724512024235354937,-192.0,-91.0,2701.0,5.0,-4.0,3.0
1724512024240359819,-188.0,-78.0,2700.0,9.0,-12.0,-2.0
1724512024245364702,-180.0,-79.0,2701.0,11.0,-4.0,-1.0
1724512024250369585,-189.0,-92.0,2696.0,3.0,-5.0,2.0
1724512024255374468,-189.0,-85.0,2700.0,6.0,-11.0,-3.0
1724512024260379351,-191.0,-95.0,2696.0,-1.0,-4.0,-2.0
1724512024265353716,-186.0,-91.0,2694.0,0.0,-6.0,5.0
1724512024270358599,-196.0,-84.0,2700.0,6.0,-12.0,-8.0
1724512024275363482,-191.0,-96.0,2704.0,4.0,-6.0,1.0
1724512024280368364,-196.0,-87.0,2706.0,12.0,-11.0,-3.0
1724512024285373247,-189.0,-83.0,2702.0,4.0,-4.0,-2.0
1724512024290378130,-191.0,-87.0,2704.0,1.0,-2.0,4.0
1724512024295352495,-197.0,-91.0,2707.0,2.0,-8.0,-7.0
1724512024300357378,-190.0,-93.0,2704.0,3.0,-3.0,0.0
1724512024305362261,-181.0,-89.0,2709.0,0.0,-13.0,1.0
1724512024310367144,-187.0,-98.0,2708.0,5.0,-15.0,-8.0
1724512024315372026,-198.0,-93.0,2710.0,3.0,-10.0,14.0
1724512024320376909,-187.0,-94.0,2717.0,6.0,-6.0,-7.0
1724512024325381792,-201.0,-87.0,2705.0,-4.0,-8.0,-2.0
1724512024330356157,-195.0,-92.0,2701.0,8.0,-6.0,6.0
1724512024335361040,-196.0,-88.0,2700.0,5.0,-1.0,-2.0
1724512024340365923,-183.0,-87.0,2698.0,3.0,-12.0,3.0
1724512024345370806,-194.0,-93.0,2698.0,4.0,-9.0,-3.0
1724512024350375689,-198.0,-101.0,2696.0,-2.0,-12.0,0.0
1724512024355380571,-193.0,-99.0,2696.0,2.0,-3.0,0.0
1724512024360354937,-193.0,-82.0,2698.0,-3.0,-3.0,0.0
1724512024365359819,-197.0,-88.0,2716.0,-2.0,-16.0,-4.0
1724512024370364702,-195.0,-97.0,2709.0,9.0,2.0,-1.0
1724512024375369585,-198.0,-93.0,2716.0,8.0,-7.0,-4.0
1724512024380374468,-186.0,-84.0,2717.0,1.0,-13.0,-2.0
1724512024385379351,-183.0,-91.0,2714.0,4.0,-5.0,0.0
1724512024390353716,-194.0,-87.0,2713.0,2.0,-9.0,-3.0
1724512024395358599,-188.0,-94.0,2705.0,2.0,-10.0,-2.0
1724512024400363482,-182.0,-82.0,2700.0,5.0,-13.0,-5.0
1724512024405368364,-183.0,-84.0,2701.0,4.0,-16.0,0.0
1724512024410373247,-198.0,-92.0,2707.0,6.0,-5.0,-4.0
1724512024415378130,-204.0,-93.0,2703.0,6.0,-5.0,1.0
1724512024420352495,-198.0,-86.0,2708.0,4.0,-13.0,-3.0
1724512024425357378,-187.0,-93.0,2707.0,0.0,-1.0,-3.0
1724512024430362261,-187.0,-93.0,2707.0,5.0,-8.0,2.0
1724512024435367144,-195.0,-87.0,2706.0,3.0,-18.0,0.0
1724512024440372026,-199.0,-78.0,2701.0,3.0,-7.0,0.0
1724512024445376909,-190.0,-88.0,2709.0,3.0,-2.0,1.0
1724512024450381792,-195.0,-87.0,2713.0,5.0,-8.0,-3.0
1724512024455356157,-190.0,-84.0,2704.0,2.0,-5.0,-5.0
1724512024460361040,-190.0,-92.0,2708.0,1.0,-8.0,1.0
1724512024465365923,-195.0,-85.0,2713.0,0.0,-12.0,-5.0
1724512024470370806,-188.0,-86.0,2697.0,6.0,-1.0,-4.0
1724512024475375689,-192.0,-95.0,2696.0,8.0,-8.0,2.0
1724512024480380571,-202.0,-90.0,2701.0,3.0,-12.0,-8.0
1724512024485354937,-191.0,-88.0,2699.0,2.0,-3.0,2.0
1724512024490359819,-188.0,-90.0,2705.0,5.0,-7.0,-2.0
1724512024495364702,-198.0,-88.0,2698.0,3.0,-14.0,-6.0
1724512024500369585,-197.0,-85.0,2702.0,0.0,-16.0,-2.0
1724512024505374468,-195.0,-95.0,2710.0,9.0,-5.0,0.0
1724512024510379351,-194.0,-92.0,2711.0,3.0,-5.0,1.0
1724512024515353716,-196.0,-92.0,2709.0,6.0,-12.0,-4.0
1724512024520358599,-186.0,-89.0,2714.0,4.0,-8.0,-8.0
1724512024525363482,-191.0,-87.0,2706.0,4.0,-16.0,-7.0
1724512024530368364,-187.0,-85.0,2697.0,2.0,-13.0,-2.0
1724512024535373247,-193.0,-84.0,2705.0,4.0,-9.0,-4.0
1724512024540378130,-202.0,-81.0,2711.0,4.0,-10.0,-5.0
1724512024545352495,-198.0,-88.0,2708.0,1.0,-13.0,-5.0
1724512024550357378,-188.0,-94.0,2714.0,1.0,-11.0,-3.0
1724512024555362261,-202.0,-91.0,2706.0,3.0,-3.0,0.0
1724512024560367144,-197.0,-94.0,2711.0,1.0,-7.0,1.0
1724512024565372026,-189.0,-95.0,2715.0,1.0,-9.0,-5.0
1724512024570376909,-192.0,-86.0,2705.0,6.0,-8.0,-1.0
1724512024575381792,-201.0,-86.0,2704.0,7.0,-3.0,-5.0
1724512024580356157,-190.0,-99.0,2703.0,3.0,-13.0,2.0
1724512024585361040,-193.0,-92.0,2699.0,2.0,-10.0,-5.0
1724512024590365923,-192.0,-91.0,2701.0,1.0,-7.0,-1.0
1724512024595370806,-191.0,-100.0,2683.0,1.0,-9.0,-6.0
1724512024600375689,-192.0,-99.0,2702.0,8.0,-3.0,-1.0
1724512024605380571,-198.0,-92.0,2705.0,0.0,-7.0,-3.0
1724512024610354937,-203.0,-92.0,2723.0,0.0,-8.0,-7.0
1724512024615359819,-187.0,-87.0,2723.0,1.0,-10.0,-4.0
1724512024620364702,-189.0,-89.0,2714.0,3.0,-7.0,-2.0
1724512024625369585,-189.0,-88.0,2703.0,7.0,-11.0,-6.0
1724512024630374468,-196.0,-85.0,2698.0,3.0,-14.0,0.0
1724512024635379351,-190.0,-95.0,2704.0,1.0,-3.0,1.0
1724512024640353716,-187.0,-88.0,2705.0,3.0,-15.0,1.0
1724512024645358599,-194.0,-82.0,2700.0,-1.0,-8.0,-2.0
1724512024650363482,-189.0,-84.0,2707.0,7.0,-16.0,-2.0
1724512024655368364,-190.0,-88.0,2704.0,9.0,-14.0,-9.0
1724512024660373247,-191.0,-88.0,2706.0,10.0,-13.0,1.0
1724512024665378130,-189.0,-92.0,2704.0,8.0,-15.0,2.0
1724512024670352495,-190.0,-95.0,2716.0,5.0,-9.0,-3.0
1724512024675357378,-185.0,-85.0,2713.0,8.0,-18.0,-2.0
1724512024680362261,-192.0,-88.0,2695.0,6.0,-11.0,3.0
1724512024685367144,-199.0,-85.0,2690.0,0.0,-14.0,-8.0
1724512024690372026,-187.0,-86.0,2705.0,5.0,-8.0,-2.0
1724512024695376909,-184.0,-90.0,2701.0,6.0,-13.0,0.0
1724512024700381792,-184.0,-89.0,2701.0,6.0,-6.0,-8.0
1724512024705356157,-188.0,-87.0,2709.0,0.0,-10.0,-4.0
1724512024710361040,-188.0,-89.0,2704.0,8.0,-10.0,4.0
1724512024715365923,-197.0,-87.0,2698.0,0.0,-12.0,-2.0
1724512024720370806,-193.0,-85.0,2693.0,-3.0,-4.0,1.0
1724512024725375689,-199.0,-95.0,2715.0,-1.0,-11.0,2.0
1724512024730380571,-189.0,-89.0,2713.0,1.0,0.0,-2.0
1724512024735354937,-191.0,-85.0,2713.0,4.0,-17.0,1.0
1724512024740359819,-191.0,-91.0,2713.0,8.0,-10.0,0.0
1724512024745364702,-189.0,-87.0,2717.0,5.0,-15.0,-4.0
1724512024750369585,-197.0,-101.0,2700.0,3.0,-5.0,-1.0
1724512024755374468,-192.0,-88.0,2692.0,6.0,-10.0,2.0
1724512024760379351,-192.0,-95.0,2695.0,4.0,-11.0,-2.0
1724512024765353716,-197.0,-84.0,2701.0,5.0,-13.0,-5.0
1724512024770358599,-186.0,-88.0,2706.0,13.0,-20.0,0.0
1724512024775363482,-190.0,-87.0,2702.0,1.0,-7.0,-6.0
1724512024780368364,-184.0,-80.0,2704.0,13.0,3.0,-2.0
1724512024785373247,-186.0,-80.0,2703.0,3.0,-3.0,-1.0
1724512024790378130,-190.0,-98.0,2712.0,6.0,-8.0,-6.0
1724512024795352495,-194.0,-93.0,2714.0,0.0,-8.0,2.0
1724512024800357378,-197.0,-89.0,2714.0,0.0,-13.0,-5.0
1724512024805362261,-191.0,-80.0,2716.0,6.0,-17.0,-2.0
1724512024810367144,-197.0,-83.0,2705.0,10.0,-6.0,-1.0
1724512024815372026,-195.0,-88.0,2702.0,1.0,-7.0,-3.0
1724512024820376909,-193.0,-86.0,2706.0,10.0,-3.0,-5.0
1724512024825381792,-187.0,-83.0,2700.0,8.0,-13.0,0.0
1724512024830356157,-194.0,-86.0,2694.0,4.0,-8.0,3.0
1724512024835361040,-200.0,-91.0,2694.0,7.0,-9.0,-1.0
1724512024840365923,-192.0,-84.0,2705.0,-6.0,-10.0,-6.0
1724512024845370806,-192.0,-92.0,2700.0,-4.0,-11.0,-1.0
1724512024850375689,-190.0,-86.0,2705.0,6.0,-3.0,-1.0
1724512024855380571,-190.0,-82.0,2718.0,-2.0,-1.0,-6.0
1724512024860354937,-198.0,-87.0,2708.0,2.0,-5.0,1.0
1724512024865359819,-197.0,-98.0,2700.0,-5.0,1.0,-2.0
1724512024870364702,-191.0,-89.0,2711.0,7.0,-8.0,1.0
1724512024875369585,-192.0,-87.0,2703.0,4.0,-9.0,1.0
1724512024880374468,-200.0,-95.0,2704.0,1.0,-12.0,0.0
1724512024885379351,-190.0,-93.0,2711.0,5.0,-8.0,-6.0
1724512024890353716,-188.0,-85.0,2715.0,5.0,-10.0,3.0
1724512024895358599,-193.0,-86.0,2713.0,3.0,-11.0,-2.0
1724512024900363482,-195.0,-88.0,2707.0,1.0,-13.0,7.0
1724512024905368364,-189.0,-90.0,2703.0,-1.0,-10.0,-1.0
1724512024910373247,-196.0,-92.0,2697.0,0.0,-9.0,-1.0
1724512024915378130,-195.0,-93.0,2698.0,-1.0,-7.0,-8.0
1724512024920352495,-195.0,-85.0,2697.0,6.0,-7.0,2.0
1724512024925357378,-190.0,-88.0,2699.0,3.0,-4.0,4.0
1724512024930362261,-193.0,-84.0,2701.0,-4.0,-2.0,10.0
1724512024935367144,-197.0,-89.0,2703.0,4.0,-8.0,-8.0
1724512024940372026,-199.0,-83.0,2702.0,-1.0,-1.0,0.0
1724512024945376909,-198.0,-88.0,2707.0,3.0,-8.0,-1.0
1724512024950381792,-190.0,-93.0,2703.0,6.0,-2.0,0.0
1724512024955356157,-194.0,-94.0,2705.0,6.0,-8.0,-2.0
1724512024960361040,-191.0,-87.0,2700.0,-2.0,-3.0,1.0
1724512024965365923,-187.0,-94.0,2715.0,-6.0,-10.0,2.0
1724512024970370806,-190.0,-82.0,2730.0,1.0,-11.0,-1.0
1724512024975375689,-198.0,-83.0,2720.0,7.0,1.0,-1.0
1724512024980380571,-189.0,-96.0,2707.0,2.0,-10.0,-2.0
1724512024985354937,-186.0,-91.0,2705.0,3.0,-8.0,-4.0
1724512024990359819,-187.0,-97.0,2695.0,1.0,-9.0,6.0
1724512024995364702,-189.0,-89.0,2697.0,4.0,-10.0,-7.0
1724512025000369585,-184.0,-77.0,2691.0,2.0,-19.0,1.0
1724512025005374468,-195.0,-90.0,2702.0,6.0,-6.0,-2.0
1724512025010379351,-190.0,-87.0,2703.0,4.0,-7.0,7.0
1724512025015353716,-186.0,-87.0,2702.0,10.0,0.0,-5.0
1724512025020358599,-190.0,-87.0,2707.0,-1.0,-8.0,0.0
1724512025025363482,-193.0,-92.0,2711.0,3.0,-6.0,0.0
1724512025030368364,-191.0,-90.0,2701.0,12.0,-13.0,-1.0
1724512025035373247,-192.0,-105.0,2704.0,4.0,-11.0,3.0
1724512025040378130,-195.0,-97.0,2708.0,6.0,-17.0,-4.0
1724512025045352495,-190.0,-83.0,2706.0,6.0,-11.0,0.0
1724512025050357378,-176.0,-88.0,2698.0,4.0,1.0,-4.0
1724512025055362261,-190.0,-88.0,2690.0,7.0,-8.0,-4.0
1724512025060367144,-194.0,-89.0,2703.0,8.0,-9.0,-3.0
1724512025065372026,-199.0,-91.0,2710.0,0.0,0.0,6.0
1724512025070376909,-189.0,-95.0,2711.0,-2.0,-16.0,-7.0
1724512025075381792,-195.0,-94.0,2706.0,3.0,-19.0,3.0
1724512025080356157,-194.0,-94.0,2697.0,1.0,-3.0,-6.0
1724512025085361040,-193.0,-92.0,2704.0,3.0,0.0,-4.0
1724512025090365923,-188.0,-98.0,2700.0,1.0,-18.0,-1.0
1724512025095370806,-191.0,-94.0,2698.0,4.0,-10.0,1.0
1724512025100375689,-194.0,-96.0,2701.0,2.0,-14.0,1.0
1724512025105380571,-190.0,-90.0,2697.0,-2.0,-16.0,5.0
1724512025110354937,-187.0,-86.0,2703.0,3.0,-9.0,1.0
1724512025115359819,-188.0,-101.0,2706.0,6.0,-3.0,-4.0
1724512025120364702,-183.0,-91.0,2703.0,7.0,-10.0,-8.0
1724512025125369585,-191.0,-91.0,2709.0,5.0,-6.0,8.0
1724512025130374468,-188.0,-89.0,2704.0,7.0,-6.0,-5.0
1724512025135379351,-190.0,-87.0,2706.0,5.0,-11.0,-4.0
1724512025140353716,-187.0,-84.0,2715.0,4.0,-12.0,-1.0
1724512025145358599,-190.0,-79.0,2707.0,3.0,-11.0,-5.0
1724512025150363482,-186.0,-92.0,2704.0,3.0,-18.0,5.0
1724512025155368364,-184.0,-98.0,2709.0,1.0,-15.0,-7.0
1724512025160373247,-187.0,-89.0,2706.0,11.0,-6.0,-3.0
1724512025165378130,-194.0,-96.0,2715.0,5.0,-12.0,-5.0
1724512025170352495,-193.0,-90.0,2706.0,2.0,-7.0,0.0
1724512025175357378,-195.0,-82.0,2700.0,4.0,-8.0,-8.0
1724512025180362261,-199.0,-93.0,2709.0,10.0,-10.0,1.0
1724512025185367144,-192.0,-98.0,2702.0,3.0,-14.0,0.0
1724512025190372026,-192.0,-88.0,2700.0,4.0,-14.0,-5.0
1724512025195376909,-187.0,-87.0,2704.0,8.0,-14.0,-4.0
1724512025200381792,-196.0,-88.0,2699.0,-1.0,-12.0,1.0
1724512025205356157,-201.0,-88.0,2695.0,0.0,-11.0,-6.0
1724512025210361040,-195.0,-89.0,2705.0,9.0,-10.0,-5.0
1724512025215365923,-194.0,-99.0,2717.0,9.0,-10.0,-7.0
1724512025220370806,-188.0,-87.0,2701.0,3.0,-8.0,2.0
1724512025225375689,-178.0,-90.0,2705.0,3.0,-11.0,0.0
1724512025230380571,-181.0,-85.0,2706.0,1.0,-4.0,-6.0
1724512025235354937,-185.0,-88.0,2714.0,2.0,-11.0,1.0
1724512025240359819,-193.0,-91.0,2703.0,8.0,0.0,-5.0
1724512025245364702,-194.0,-90.0,2702.0,5.0,-8.0,1.0
1724512025250369585,-201.0,-86.0,2707.0,5.0,-5.0,0.0
1724512025255374468,-206.0,-89.0,2706.0,-3.0,-7.0,0.0
1724512025260379351,-184.0,-82.0,2699.0,7.0,-15.0,-2.0
1724512025265353716,-199.0,-96.0,2701.0,3.0,-16.0,1.0
1724512025270358599,-191.0,-100.0,2713.0,0.0,-11.0,-2.0
1724512025275363482,-186.0,-98.0,2703.0,0.0,-6.0,0.0
1724512025280368364,-199.0,-89.0,2706.0,4.0,1.0,-3.0
1724512025285373247,-190.0,-86.0,2716.0,1.0,-6.0,-1.0
1724512025290378130,-187.0,-82.0,2703.0,4.0,-11.0,0.0
1724512025295352495,-185.0,-92.0,2701.0,7.0,-1.0,-1.0
1724512025300357378,-189.0,-91.0,2705.0,5.0,-11.0,-8.0
1724512025305362261,-195.0,-95.0,2706.0,1.0,-4.0,0.0
1724512025310367144,-204.0,-82.0,2698.0,2.0,-10.0,-4.0
1724512025315372026,-193.0,-86.0,2694.0,3.0,-25.0,-5.0
1724512025320376909,-190.0,-92.0,2698.0,9.0,-12.0,-4.0
1724512025325381792,-194.0,-97.0,2696.0,7.0,-11.0,-2.0
1724512025330356157,-198.0,-95.0,2701.0,7.0,-13.0,-7.0
1724512025335361040,-194.0,-88.0,2710.0,6.0,-12.0,-4.0
1724512025340365923,-187.0,-87.0,2706.0,2.0,-8.0,-4.0
1724512025345370806,-189.0,-88.0,2703.0,0.0,-4.0,1.0
1724512025350375689,-192.0,-94.0,2717.0,-4.0,-5.0,-10.0
1724512025355380571,-192.0,-96.0,2706.0,6.0,-14.0,5.0
1724512025360354937,-184.0,-85.0,2704.0,-4.0,-14.0,-7.0
1724512025365359819,-184.0,-92.0,2708.0,5.0,-6.0,-4.0
1724512025370364702,-193.0,-91.0,2709.0,-1.0,-8.0,-8.0
1724512025375369585,-192.0,-92.0,2703.0,7.0,-12.0,0.0
1724512025380374468,-190.0,-93.0,2712.0,0.0,-5.0,-6.0
1724512025385379351,-194.0,-92.0,2705.0,6.0,-5.0,7.0
1724512025390353716,-192.0,-86.0,2703.0,3.0,-10.0,-8.0
1724512025395358599,-193.0,-88.0,2694.0,9.0,-10.0,5.0
1724512025400363482,-192.0,-90.0,2696.0,6.0,-9.0,-3.0
1724512025405368364,-188.0,-83.0,2701.0,2.0,-8.0,-4.0
1724512025410373247,-191.0,-88.0,2704.0,6.0,-11.0,-4.0
1724512025415378130,-189.0,-95.0,2708.0,6.0,-12.0,-6.0
1724512025420352495,-188.0,-85.0,2719.0,-1.0,1.0,4.0
1724512025425357378,-192.0,-88.0,2715.0,-2.0,-12.0,1.0
1724512025430362261,-197.0,-89.0,2701.0,5.0,-4.0,-7.0
1724512025435367144,-183.0,-90.0,2709.0,-1.0,-13.0,6.0
1724512025440372026,-191.0,-91.0,2710.0,7.0,-11.0,-3.0
1724512025445376909,-198.0,-91.0,2702.0,2.0,-6.0,-1.0
1724512025450381792,-198.0,-91.0,2702.0,3.0,-12.0,-5.0
1724512025455356157,-187.0,-94.0,2701.0,5.0,-11.0,-1.0
1724512025460361040,-194.0,-89.0,2696.0,-1.0,-3.0,-2.0
1724512025465365923,-198.0,-80.0,2700.0,8.0,-17.0,-3.0
1724512025470370806,-195.0,-85.0,2700.0,-5.0,-1.0,-1.0
1724512025475375689,-190.0,-92.0,2699.0,-3.0,-7.0,-4.0
1724512025480380571,-192.0,-86.0,2703.0,0.0,-6.0,-3.0
1724512025485354937,-187.0,-93.0,2715.0,2.0,-4.0,2.0
1724512025490359819,-183.0,-93.0,2709.0,6.0,-5.0,-4.0
1724512025495364702,-184.0,-96.0,2707.0,0.0,-7.0,-1.0
1724512025500369585,-189.0,-95.0,2698.0,-2.0,-8.0,-6.0
1724512025505374468,-193.0,-85.0,2699.0,5.0,-8.0,2.0
1724512025510379351,-188.0,-88.0,2692.0,4.0,-2.0,-7.0
1724512025515353716,-194.0,-85.0,2703.0,1.0,-14.0,-5.0
1724512025520358599,-199.0,-93.0,2711.0,-1.0,-12.0,0.0
1724512025525363482,-201.0,-87.0,2705.0,8.0,-16.0,2.0
1724512025530368364,-184.0,-89.0,2711.0,1.0,-15.0,-3.0
1724512025535373247,-189.0,-87.0,2718.0,2.0,-11.0,-5.0
1724512025540378130,-190.0,-91.0,2709.0,6.0,-16.0,-3.0
1724512025545352495,-197.0,-84.0,2702.0,-4.0,-8.0,-2.0
1724512025550357378,-195.0,-86.0,2706.0,8.0,-4.0,-5.0
1724512025555362261,-200.0,-87.0,2705.0,0.0,4.0,-4.0
1724512025560367144,-198.0,-89.0,2699.0,6.0,-11.0,2.0
1724512025565372026,-190.0,-88.0,2700.0,-2.0,-4.0,1.0
1724512025570376909,-187.0,-88.0,2711.0,-3.0,-11.0,-4.0
1724512025575381792,-189.0,-98.0,2701.0,6.0,-3.0,-1.0
1724512025580356157,-193.0,-93.0,2698.0,4.0,-10.0,-5.0
1724512025585361040,-195.0,-94.0,2703.0,3.0,-8.0,4.0
1724512025590365923,-196.0,-86.0,2704.0,4.0,-4.0,1.0
1724512025595370806,-200.0,-91.0,2698.0,5.0,-6.0,5.0
1724512025600375689,-193.0,-86.0,2708.0,1.0,-6.0,-4.0
1724512025605380571,-191.0,-84.0,2706.0,9.0,-12.0,-5.0
1724512025610354937,-194.0,-85.0,2709.0,-1.0,1.0,1.0
1724512025615359819,-194.0,-91.0,2705.0,3.0,-1.0,1.0
1724512025620364702,-194.0,-94.0,2713.0,-2.0,-8.0,-1.0
1724512025625369585,-186.0,-96.0,2707.0,7.0,-12.0,0.0
1724512025630374468,-194.0,-96.0,2710.0,4.0,-3.0,-2.0
1724512025635379351,-193.0,-89.0,2708.0,10.0,-14.0,-2.0
1724512025640353716,-195.0,-93.0,2705.0,3.0,-14.0,-7.0
1724512025645358599,-190.0,-90.0,2709.0,5.0,-7.0,3.0
1724512025650363482,-185.0,-82.0,2710.0,3.0,-6.0,8.0
1724512025655368364,-192.0,-90.0,2716.0,3.0,-1.0,1.0
1724512025660373247,-194.0,-89.0,2712.0,7.0,-10.0,-4.0
1724512025665378130,-195.0,-91.0,2707.0,10.0,-16.0,-7.0
1724512025670352495,-196.0,-84.0,2696.0,14.0,-12.0,-5.0
1724512025675357378,-195.0,-89.0,2702.0,7.0,-10.0,0.0
1724512025680362261,-195.0,-85.0,2710.0,6.0,-2.0,-8.0
1724512025685367144,-196.0,-95.0,2697.0,4.0,-5.0,7.0
1724512025690372026,-193.0,-88.0,2699.0,-3.0,-1.0,-8.0
1724512025695376909,-192.0,-82.0,2700.0,6.0,-9.0,1.0
1724512025700381792,-191.0,-88.0,2711.0,2.0,-5.0,-4.0
1724512025705356157,-199.0,-92.0,2705.0,-3.0,-9.0,1.0
1724512025710361040,-192.0,-90.0,2703.0,4.0,-3.0,-4.0
1724512025715365923,-181.0,-93.0,2701.0,12.0,-19.0,-2.0
1724512025720370806,-187.0,-84.0,2713.0,4.0,1.0,-2.0
1724512025725375689,-191.0,-87.0,2712.0,4.0,-8.0,-5.0
1724512025730380571,-189.0,-84.0,2709.0,5.0,-11.0,-1.0
1724512025735354937,-194.0,-85.0,2705.0,6.0,-4.0,-3.0
1724512025740359819,-188.0,-91.0,2708.0,6.0,-16.0,0.0
1724512025745364702,-194.0,-91.0,2712.0,5.0,-10.0,-7.0
1724512025750369585,-196.0,-82.0,2702.0,-7.0,-8.0,0.0
1724512025755374468,-194.0,-92.0,2693.0,3.0,-8.0,-4.0
1724512025760379351,-189.0,-81.0,2712.0,1.0,-10.0,0.0
1724512025765353716,-196.0,-89.0,2710.0,7.0,-7.0,1.0
1724512025770358599,-193.0,-90.0,2704.0,0.0,-13.0,-1.0
1724512025775363482,-186.0,-98.0,2705.0,3.0,-5.0,-6.0
1724512025780368364,-190.0,-87.0,2703.0,1.0,-9.0,-1.0
1724512025785373247,-184.0,-87.0,2705.0,-1.0,-11.0,-5.0
1724512025790378130,-182.0,-95.0,2710.0,5.0,-11.0,0.0
1724512025795352495,-190.0,-93.0,2708.0,6.0,-7.0,1.0
1724512025800357378,-197.0,-92.0,2704.0,1.0,-7.0,-5.0
1724512025805362261,-197.0,-85.0,2710.0,7.0,-10.0,3.0
1724512025810367144,-189.0,-87.0,2709.0,3.0,-8.0,-2.0
1724512025815372026,-192.0,-87.0,2703.0,10.0,-5.0,-2.0
1724512025820376909,-189.0,-81.0,2696.0,7.0,-8.0,-2.0
1724512025825381792,-193.0,-91.0,2702.0,8.0,-6.0,-7.0
1724512025830356157,-194.0,-97.0,2705.0,8.0,-11.0,1.0
1724512025835361040,-192.0,-89.0,2700.0,2.0,-17.0,-5.0
1724512025840365923,-200.0,-89.0,2700.0,10.0,-10.0,0.0
1724512025845370806,-196.0,-92.0,2708.0,-1.0,-11.0,-6.0
1724512025850375689,-186.0,-91.0,2709.0,4.0,-19.0,-4.0
1724512025855380571,-188.0,-92.0,2717.0,6.0,-10.0,1.0
1724512025860354937,-192.0,-92.0,2699.0,-1.0,-9.0,1.0
1724512025865359819,-183.0,-87.0,2695.0,3.0,-7.0,1.0
1724512025870364702,-194.0,-84.0,2705.0,0.0,-10.0,-2.0
1724512025875369585,-198.0,-88.0,2694.0,8.0,-10.0,-7.0
1724512025880374468,-194.0,-86.0,2702.0,5.0,0.0,-1.0
1724512025885379351,-188.0,-91.0,2706.0,1.0,-12.0,-2.0
1724512025890353716,-190.0,-91.0,2706.0,-1.0,-1.0,0.0
1724512025895358599,-196.0,-92.0,2708.0,4.0,-8.0,0.0
1724512025900363482,-193.0,-95.0,2708.0,2.0,-6.0,-3.0
1724512025905368364,-198.0,-83.0,2710.0,3.0,-9.0,-1.0
1724512025910373247,-199.0,-83.0,2699.0,2.0,1.0,2.0
1724512025915378130,-197.0,-91.0,2704.0,4.0,-3.0,-1.0
1724512025920352495,-198.0,-94.0,2703.0,1.0,0.0,5.0
1724512025925357378,-192.0,-94.0,2710.0,4.0,-12.0,-5.0
1724512025930362261,-193.0,-85.0,2709.0,-4.0,0.0,-2.0
1724512025935367144,-201.0,-91.0,2703.0,5.0,-13.0,-1.0
1724512025940372026,-199.0,-101.0,2694.0,-2.0,1.0,2.0
1724512025945376909,-188.0,-90.0,2699.0,6.0,-6.0,-5.0
1724512025950381792,-197.0,-91.0,2699.0,-1.0,-4.0,-8.0
1724512025955356157,-195.0,-89.0,2699.0,8.0,-7.0,-4.0
1724512025960361040,-196.0,-89.0,2710.0,2.0,-10.0,-1.0
1724512025965365923,-197.0,-87.0,2713.0,2.0,-11.0,-4.0
1724512025970370806,-192.0,-87.0,2708.0,8.0,-12.0,-5.0
1724512025975375689,-192.0,-81.0,2703.0,1.0,-18.0,-2.0
1724512025980380571,-190.0,-89.0,2708.0,7.0,-5.0,-9.0
1724512025985354937,-188.0,-98.0,2704.0,0.0,-10.0,-2.0
1724512025990359819,-196.0,-96.0,2697.0,5.0,-10.0,-6.0
1724512025995364702,-195.0,-91.0,2701.0,2.0,-5.0,0.0
1724512026000369585,-194.0,-96.0,2704.0,2.0,-10.0,0.0
1724512026005374468,-194.0,-93.0,2704.0,8.0,-2.0,-2.0
1724512026010379351,-192.0,-95.0,2701.0,5.0,-15.0,-7.0
1724512026015353716,-191.0,-86.0,2719.0,2.0,-14.0,2.0
1724512026020358599,-193.0,-93.0,2710.0,-3.0,-13.0,2.0
1724512026025363482,-191.0,-86.0,2693.0,0.0,-7.0,2.0
1724512026030368364,-186.0,-86.0,2698.0,2.0,-11.0,-4.0
1724512026035373247,-192.0,-83.0,2719.0,2.0,-10.0,-5.0
1724512026040378130,-199.0,-98.0,2709.0,7.0,-11.0,0.0
1724512026045352495,-191.0,-85.0,2699.0,4.0,-5.0,-6.0
1724512026050357378,-201.0,-77.0,2712.0,1.0,-11.0,-4.0
1724512026055362261,-191.0,-80.0,2706.0,7.0,-19.0,-1.0
1724512026060367144,-196.0,-89.0,2701.0,-5.0,1.0,-8.0
1724512026065372026,-202.0,-87.0,2706.0,0.0,-12.0,2.0
1724512026070376909,-187.0,-85.0,2704.0,6.0,-7.0,-1.0
1724512026075381792,-193.0,-88.0,2710.0,1.0,-15.0,-2.0
1724512026080356157,-197.0,-98.0,2705.0,1.0,-10.0,3.0
1724512026085361040,-185.0,-88.0,2705.0,9.0,-9.0,-2.0
1724512026090365923,-195.0,-89.0,2708.0,-1.0,0.0,-1.0
1724512026095370806,-197.0,-90.0,2704.0,2.0,-14.0,4.0
1724512026100375689,-190.0,-92.0,2701.0,1.0,-8.0,-8.0
1724512026105380571,-187.0,-87.0,2700.0,7.0,1.0,-2.0
1724512026110354937,-190.0,-86.0,2699.0,0.0,-16.0,-1.0
1724512026115359819,-190.0,-89.0,2705.0,1.0,-8.0,-3.0
1724512026120364702,-187.0,-87.0,2712.0,5.0,-2.0,2.0
1724512026125369585,-190.0,-88.0,2706.0,7.0,-8.0,-2.0
1724512026130374468,-185.0,-88.0,2704.0,3.0,-11.0,2.0
1724512026135379351,-192.0,-95.0,2706.0,7.0,-17.0,0.0
1724512026140353716,-182.0,-87.0,2715.0,0.0,-3.0,0.0
1724512026145358599,-185.0,-87.0,2698.0,8.0,-9.0,0.0
1724512026150363482,-192.0,-87.0,2696.0,4.0,-12.0,2.0
1724512026155368364,-193.0,-88.0,2699.0,1.0,-12.0,-1.0
1724512026160373247,-188.0,-92.0,2700.0,12.0,-9.0,-1.0
1724512026165378130,-184.0,-89.0,2715.0,2.0,-12.0,-3.0
1724512026170352495,-190.0,-96.0,2704.0,6.0,-5.0,2.0
1724512026175357378,-198.0,-90.0,2707.0,3.0,-13.0,-3.0
1724512026180362261,-192.0,-88.0,2712.0,10.0,-15.0,-7.0
1724512026185367144,-187.0,-90.0,2707.0,5.0,-16.0,-4.0
1724512026190372026,-194.0,-99.0,2702.0,2.0,-7.0,0.0
1724512026195376909,-186.0,-90.0,2704.0,-2.0,-4.0,-4.0
1724512026200381792,-187.0,-85.0,2699.0,1.0,-6.0,1.0
1724512026205356157,-198.0,-95.0,2704.0,-1.0,-13.0,0.0
1724512026210361040,-199.0,-90.0,2704.0,1.0,-9.0,-5.0
1724512026215365923,-195.0,-94.0,2715.0,-1.0,-8.0,1.0
1724512026220370806,-187.0,-97.0,2709.0,3.0,-9.0,-5.0
1724512026225375689,-196.0,-82.0,2708.0,3.0,-1.0,-3.0
1724512026230380571,-197.0,-88.0,2712.0,-1.0,-8.0,4.0
1724512026235354937,-187.0,-90.0,2703.0,3.0,-7.0,-2.0
1724512026240359819,-191.0,-88.0,2705.0,1.0,-9.0,-2.0
1724512026245364702,-193.0,-89.0,2701.0,6.0,-14.0,-1.0
1724512026250369585,-193.0,-87.0,2702.0,2.0,-12.0,-1.0
1724512026255374468,-195.0,-85.0,2706.0,2.0,-3.0,-1.0
1724512026260379351,-193.0,-80.0,2709.0,6.0,-17.0,-7.0
1724512026265353716,-188.0,-83.0,2695.0,9.0,-14.0,-3.0
1724512026270358599,-192.0,-80.0,2701.0,5.0,-12.0,-7.0
1724512026275363482,-187.0,-81.0,2703.0,11.0,-2.0,-1.0
1724512026280368364,-180.0,-87.0,2708.0,5.0,-4.0,1.0
1724512026285373247,-187.0,-88.0,2713.0,5.0,-9.0,2.0
1724512026290378130,-189.0,-96.0,2706.0,2.0,-11.0,-2.0
1724512026295352495,-192.0,-91.0,2709.0,-2.0,2.0,2.0
1724512026300357378,-190.0,-93.0,2707.0,8.0,-4.0,2.0
1724512026305362261,-193.0,-101.0,2696.0,7.0,-11.0,-4.0
1724512026310367144,-202.0,-97.0,2709.0,5.0,-11.0,-3.0
1724512026315372026,-196.0,-90.0,2699.0,3.0,-5.0,-9.0
1724512026320376909,-188.0,-91.0,2707.0,8.0,-2.0,-1.0
1724512026325381792,-198.0,-88.0,2718.0,11.0,-16.0,3.0
1724512026330356157,-193.0,-94.0,2709.0,-3.0,1.0,3.0
1724512026335361040,-190.0,-91.0,2706.0,1.0,-14.0,0.0
1724512026340365923,-193.0,-92.0,2708.0,5.0,-3.0,0.0
1724512026345370806,-193.0,-89.0,2707.0,4.0,-9.0,-6.0
1724512026350375689,-193.0,-85.0,2696.0,11.0,-5.0,1.0
1724512026355380571,-196.0,-87.0,2706.0,5.0,-12.0,2.0
1724512026360354937,-199.0,-84.0,2703.0,3.0,-12.0,-10.0
1724512026365359819,-193.0,-83.0,2698.0,2.0,1.0,-1.0
1724512026370364702,-196.0,-88.0,2696.0,4.0,-4.0,-3.0
1724512026375369585,-188.0,-76.0,2701.0,6.0,-9.0,0.0
1724512026380374468,-186.0,-79.0,2706.0,4.0,-9.0,-7.0
1724512026385379351,-192.0,-96.0,2702.0,1.0,-7.0,-3.0
1724512026390353716,-188.0,-92.0,2707.0,9.0,-12.0,-1.0
1724512026395358599,-193.0,-93.0,2715.0,0.0,-10.0,-3.0
1724512026400363482,-179.0,-90.0,2708.0,1.0,-8.0,1.0
1724512026405368364,-182.0,-87.0,2709.0,5.0,-13.0,-2.0
1724512026410373247,-189.0,-89.0,2698.0,6.0,-11.0,-2.0
1724512026415378130,-190.0,-86.0,2705.0,4.0,-2.0,-1.0
1724512026420352495,-193.0,-88.0,2698.0,1.0,-12.0,0.0
1724512026425357378,-190.0,-89.0,2698.0,6.0,-6.0,2.0
1724512026430362261,-189.0,-85.0,2702.0,12.0,-10.0,-3.0
1724512026435367144,-189.0,-88.0,2700.0,7.0,0.0,-5.0
1724512026440372026,-186.0,-95.0,2705.0,-2.0,-4.0,-1.0
1724512026445376909,-183.0,-93.0,2704.0,1.0,-8.0,0.0
1724512026450381792,-187.0,-85.0,2714.0,4.0,-10.0,2.0
1724512026455356157,-185.0,-94.0,2710.0,0.0,-8.0,-2.0
1724512026460361040,-186.0,-92.0,2702.0,5.0,-7.0,-3.0
1724512026465365923,-186.0,-92.0,2702.0,5.0,-3.0,-2.0
1724512026470370806,-193.0,-93.0,2695.0,4.0,-10.0,1.0
1724512026475375689,-198.0,-88.0,2705.0,5.0,-9.0,-7.0
1724512026480380571,-201.0,-89.0,2702.0,2.0,-12.0,-2.0
1724512026485354937,-194.0,-92.0,2708.0,6.0,-11.0,5.0
1724512026490359819,-196.0,-89.0,2705.0,5.0,-11.0,-2.0
1724512026495364702,-192.0,-91.0,2705.0,1.0,-10.0,-2.0
1724512026500369585,-182.0,-91.0,2710.0,2.0,-15.0,0.0
1724512026505374468,-178.0,-87.0,2701.0,-1.0,-8.0,-6.0
1724512026510379351,-197.0,-88.0,2704.0,3.0,-12.0,-3.0
1724512026515353716,-191.0,-93.0,2703.0,-4.0,-5.0,-7.0
1724512026520358599,-194.0,-93.0,2692.0,3.0,-6.0,1.0
1724512026525363482,-195.0,-86.0,2697.0,1.0,-8.0,0.0
1724512026530368364,-193.0,-94.0,2705.0,6.0,-12.0,0.0
1724512026535373247,-183.0,-83.0,2695.0,6.0,-6.0,4.0
1724512026540378130,-193.0,-79.0,2705.0,2.0,-15.0,-3.0
1724512026545352495,-200.0,-91.0,2705.0,1.0,-6.0,1.0
1724512026550357378,-193.0,-96.0,2705.0,5.0,-12.0,-5.0
1724512026555362261,-192.0,-91.0,2696.0,0.0,-2.0,-1.0
1724512026560367144,-203.0,-87.0,2710.0,-3.0,-11.0,-8.0
1724512026565372026,-195.0,-84.0,2709.0,9.0,-20.0,2.0
1724512026570376909,-186.0,-90.0,2708.0,1.0,0.0,-6.0
1724512026575381792,-190.0,-84.0,2712.0,2.0,-10.0,0.0
1724512026580356157,-190.0,-86.0,2703.0,-4.0,-4.0,-2.0
1724512026585361040,-195.0,-91.0,2709.0,0.0,-10.0,5.0
1724512026590365923,-202.0,-91.0,2711.0,3.0,-6.0,-1.0
1724512026595370806,-198.0,-83.0,2711.0,5.0,2.0,-3.0
1724512026600375689,-190.0,-87.0,2706.0,-6.0,-2.0,-2.0
1724512026605380571,-192.0,-87.0,2713.0,6.0,-11.0,-5.0
1724512026610354937,-201.0,-86.0,2703.0,4.0,-7.0,-6.0
1724512026615359819,-197.0,-87.0,2706.0,5.0,-13.0,1.0
1724512026620364702,-188.0,-99.0,2707.0,5.0,-6.0,-5.0
1724512026625369585,-189.0,-86.0,2694.0,1.0,-22.0,-6.0
1724512026630374468,-188.0,-85.0,2694.0,2.0,-1.0,-3.0
1724512026635379351,-187.0,-85.0,2709.0,5.0,-10.0,6.0
1724512026640353716,-187.0,-86.0,2705.0,9.0,-9.0,-6.0
1724512026645358599,-201.0,-84.0,2709.0,9.0,-9.0,-1.0
1724512026650363482,-195.0,-92.0,2703.0,6.0,-10.0,-2.0
1724512026655368364,-190.0,-84.0,2704.0,6.0,-9.0,-3.0
1724512026660373247,-187.0,-90.0,2708.0,1.0,-8.0,-6.0
1724512026665378130,-195.0,-92.0,2705.0,-1.0,-6.0,0.0
1724512026670352495,-190.0,-95.0,2705.0,8.0,-16.0,-3.0
1724512026675357378,-199.0,-96.0,2700.0,8.0,-9.0,3.0
1724512026680362261,-203.0,-86.0,2711.0,1.0,-6.0,1.0
1724512026685367144,-200.0,-97.0,2701.0,4.0,4.0,-1.0
1724512026690372026,-190.0,-98.0,2696.0,8.0,-10.0,-6.0
1724512026695376909,-188.0,-94.0,2709.0,0.0,-15.0,-3.0
1724512026700381792,-189.0,-98.0,2705.0,6.0,-8.0,-5.0
1724512026705356157,-197.0,-92.0,2702.0,10.0,-16.0,-5.0
1724512026710361040,-195.0,-86.0,2709.0,10.0,-10.0,-4.0
1724512026715365923,-188.0,-96.0,2711.0,3.0,-15.0,-2.0
1724512026720370806,-190.0,-92.0,2708.0,1.0,-9.0,-1.0
1724512026725375689,-205.0,-94.0,2707.0,1.0,0.0,1.0
1724512026730380571,-187.0,-88.0,2703.0,-1.0,-14.0,-5.0
1724512026735354937,-191.0,-90.0,2696.0,6.0,-9.0,-3.0
1724512026740359819,-197.0,-95.0,2700.0,4.0,-10.0,-1.0
1724512026745364702,-191.0,-97.0,2707.0,1.0,-2.0,-7.0
1724512026750369585,-197.0,-85.0,2705.0,2.0,-12.0,-8.0
1724512026755374468,-195.0,-87.0,2710.0,10.0,-2.0,-5.0
1724512026760379351,-193.0,-86.0,2707.0,-2.0,-5.0,-2.0
1724512026765353716,-195.0,-95.0,2701.0,7.0,-4.0,-8.0
1724512026770358599,-192.0,-87.0,2708.0,9.0,-14.0,1.0
1724512026775363482,-187.0,-80.0,2706.0,6.0,-17.0,-3.0
1724512026780368364,-200.0,-88.0,2698.0,-2.0,-9.0,1.0
1724512026785373247,-198.0,-89.0,2699.0,-4.0,-12.0,-1.0
1724512026790378130,-191.0,-91.0,2707.0,10.0,-12.0,-3.0
1724512026795352495,-186.0,-94.0,2697.0,3.0,-14.0,-4.0
1724512026800357378,-191.0,-99.0,2695.0,6.0,-1.0,4.0
1724512026805362261,-187.0,-88.0,2702.0,-1.0,-18.0,-6.0
1724512026810367144,-180.0,-77.0,2704.0,6.0,-10.0,0.0
1724512026815372026,-195.0,-84.0,2712.0,7.0,-1.0,-4.0
1724512026820376909,-194.0,-84.0,2711.0,11.0,-7.0,-5.0
1724512026825381792,-196.0,-89.0,2703.0,4.0,-14.0,2.0
1724512026830356157,-197.0,-84.0,2701.0,2.0,-5.0,-8.0
1724512026835361040,-191.0,-91.0,2706.0,0.0,-14.0,0.0
1724512026840365923,-188.0,-88.0,2715.0,6.0,-12.0,-1.0
1724512026845370806,-185.0,-90.0,2697.0,6.0,-10.0,2.0
1724512026850375689,-182.0,-94.0,2707.0,6.0,-9.0,-10.0
1724512026855380571,-191.0,-86.0,2700.0,1.0,-7.0,-4.0
1724512026860354937,-193.0,-91.0,2700.0,4.0,-12.0,5.0
1724512026865359819,-193.0,-96.0,2700.0,-1.0,2.0,-5.0
1724512026870364702,-190.0,-96.0,2709.0,1.0,-2.0,0.0
1724512026875369585,-198.0,-91.0,2702.0,3.0,-14.0,3.0
1724512026880374468,-188.0,-84.0,2706.0,0.0,-15.0,-8.0
1724512026885379351,-202.0,-99.0,2714.0,6.0,-15.0,-3.0
1724512026890353716,-191.0,-86.0,2712.0,1.0,-7.0,-7.0
1724512026895358599,-191.0,-88.0,2707.0,13.0,-10.0,0.0
1724512026900363482,-189.0,-97.0,2699.0,6.0,-14.0,-2.0
1724512026905368364,-191.0,-91.0,2713.0,6.0,-7.0,-1.0
1724512026910373247,-188.0,-81.0,2708.0,7.0,-18.0,0.0
1724512026915378130,-183.0,-90.0,2704.0,5.0,-9.0,-2.0
1724512026920352495,-191.0,-92.0,2700.0,8.0,-6.0,-5.0
1724512026925357378,-195.0,-85.0,2710.0,-1.0,-11.0,3.0
1724512026930362261,-203.0,-97.0,2711.0,7.0,-11.0,-2.0
1724512026935367144,-189.0,-86.0,2695.0,-2.0,-1.0,1.0
1724512026940372026,-189.0,-91.0,2694.0,0.0,-10.0,-5.0
1724512026945376909,-196.0,-90.0,2706.0,2.0,-14.0,-3.0
1724512026950381792,-201.0,-84.0,2708.0,13.0,-9.0,-1.0
1724512026955356157,-190.0,-83.0,2713.0,3.0,-9.0,-4.0
1724512026960361040,-190.0,-80.0,2710.0,2.0,-11.0,-3.0
1724512026965365923,-184.0,-87.0,2708.0,-1.0,-12.0,-6.0
1724512026970370806,-188.0,-97.0,2697.0,2.0,-10.0,0.0
1724512026975375689,-195.0,-93.0,2694.0,5.0,-5.0,6.0
1724512026980380571,-193.0,-92.0,2700.0,2.0,3.0,2.0
1724512026985354937,-189.0,-99.0,2690.0,0.0,-18.0,0.0
1724512026990359819,-186.0,-95.0,2701.0,7.0,-4.0,-3.0
1724512026995364702,-191.0,-96.0,2705.0,7.0,-4.0,-3.0
1724512027000369585,-200.0,-95.0,2710.0,0.0,-5.0,5.0
1724512027005374468,-192.0,-86.0,2711.0,6.0,-8.0,-5.0
1724512027010379351,-181.0,-89.0,2702.0,-3.0,-10.0,-3.0
1724512027015353716,-192.0,-90.0,2704.0,2.0,-5.0,-2.0
1724512027020358599,-195.0,-88.0,2707.0,8.0,-9.0,-2.0
1724512027025363482,-190.0,-84.0,2706.0,8.0,-16.0,-1.0
1724512027030368364,-191.0,-87.0,2700.0,2.0,-10.0,-1.0
1724512027035373247,-197.0,-87.0,2707.0,5.0,-9.0,-8.0
1724512027040378130,-195.0,-92.0,2706.0,1.0,-9.0,-3.0
1724512027045352495,-190.0,-104.0,2705.0,-1.0,-19.0,1.0
1724512027050357378,-182.0,-93.0,2696.0,4.0,-7.0,-5.0
1724512027055362261,-197.0,-92.0,2710.0,9.0,-10.0,-1.0
1724512027060367144,-195.0,-87.0,2703.0,1.0,-2.0,2.0
1724512027065372026,-183.0,-94.0,2698.0,-1.0,-9.0,-6.0
1724512027070376909,-191.0,-97.0,2702.0,4.0,-5.0,-3.0
1724512027075381792,-200.0,-90.0,2709.0,8.0,-8.0,-1.0
1724512027080356157,-188.0,-83.0,2702.0,3.0,-6.0,0.0
1724512027085361040,-191.0,-86.0,2703.0,-6.0,-1.0,-3.0
1724512027090365923,-182.0,-93.0,2708.0,-1.0,-6.0,1.0
1724512027095370806,-187.0,-96.0,2713.0,0.0,-13.0,0.0
1724512027100375689,-188.0,-90.0,2704.0,14.0,-12.0,-5.0
1724512027105380571,-196.0,-89.0,2707.0,0.0,-1.0,-1.0
1724512027110354937,-196.0,-95.0,2698.0,5.0,-5.0,-5.0
1724512027115359819,-184.0,-85.0,2691.0,7.0,-9.0,0.0
1724512027120364702,-194.0,-90.0,2695.0,-1.0,-4.0,-2.0
1724512027125369585,-195.0,-88.0,2700.0,4.0,-6.0,1.0
1724512027130374468,-180.0,-94.0,2706.0,3.0,-10.0,3.0
1724512027135379351,-192.0,-97.0,2700.0,4.0,-8.0,5.0
1724512027140353716,-193.0,-94.0,2704.0,-1.0,-12.0,-3.0
1724512027145358599,-197.0,-88.0,2702.0,5.0,-8.0,-3.0
1724512027150363482,-192.0,-90.0,2699.0,7.0,-4.0,-6.0
1724512027155368364,-190.0,-93.0,2697.0,4.0,-10.0,1.0
1724512027160373247,-186.0,-94.0,2700.0,3.0,-13.0,-8.0
1724512027165378130,-200.0,-92.0,2706.0,6.0,-5.0,1.0
1724512027170352495,-186.0,-90.0,2702.0,7.0,-9.0,-6.0
1724512027175357378,-191.0,-84.0,2709.0,-3.0,-17.0,-1.0
1724512027180362261,-205.0,-89.0,2695.0,9.0,-8.0,-5.0
1724512027185367144,-193.0,-88.0,2692.0,5.0,-11.0,3.0
1724512027190372026,-185.0,-87.0,2716.0,5.0,1.0,2.0
1724512027195376909,-188.0,-80.0,2702.0,8.0,-21.0,-3.0
1724512027200381792,-183.0,-89.0,2705.0,2.0,-7.0,-3.0
1724512027205356157,-188.0,-93.0,2702.0,-1.0,-11.0,1.0
1724512027210361040,-190.0,-92.0,2712.0,7.0,-11.0,0.0
1724512027215365923,-194.0,-93.0,2700.0,3.0,-1.0,-1.0
1724512027220370806,-186.0,-86.0,2710.0,2.0,0.0,-5.0
1724512027225375689,-180.0,-84.0,2708.0,-3.0,1.0,1.0
1724512027230380571,-200.0,-84.0,2706.0,3.0,-8.0,-1.0
1724512027235354937,-194.0,-80.0,2706.0,2.0,-7.0,-1.0
1724512027240359819,-188.0,-92.0,2704.0,-2.0,-2.0,-7.0
1724512027245364702,-194.0,-85.0,2703.0,3.0,-10.0,3.0
1724512027250369585,-190.0,-87.0,2708.0,-1.0,-9.0,-7.0
1724512027255374468,-184.0,-87.0,2701.0,8.0,4.0,-2.0
1724512027260379351,-192.0,-92.0,2707.0,11.0,-6.0,-5.0
1724512027265353716,-199.0,-88.0,2712.0,3.0,-9.0,3.0
1724512027270358599,-191.0,-93.0,2718.0,-1.0,-17.0,-2.0
1724512027275363482,-192.0,-89.0,2712.0,6.0,-6.0,-7.0
1724512027280368364,-199.0,-86.0,2708.0,-1.0,-5.0,2.0
1724512027285373247,-198.0,-91.0,2712.0,10.0,-18.0,-5.0
1724512027290378130,-192.0,-81.0,2692.0,1.0,-12.0,-5.0
1724512027295352495,-194.0,-91.0,2693.0,9.0,-8.0,-7.0
1724512027300357378,-188.0,-83.0,2699.0,3.0,-8.0,2.0
1724512027305362261,-189.0,-86.0,2701.0,0.0,-7.0,-8.0
1724512027310367144,-191.0,-87.0,2702.0,4.0,-5.0,-2.0
1724512027315372026,-192.0,-88.0,2704.0,7.0,-5.0,-5.0
1724512027320376909,-190.0,-88.0,2705.0,5.0,-13.0,0.0
1724512027325381792,-187.0,-91.0,2703.0,0.0,-11.0,2.0
1724512027330356157,-189.0,-92.0,2710.0,10.0,0.0,2.0
1724512027335361040,-193.0,-85.0,2705.0,2.0,-4.0,-3.0
1724512027340365923,-193.0,-83.0,2700.0,8.0,-5.0,3.0
1724512027345370806,-200.0,-93.0,2703.0,7.0,-8.0,-3.0
1724512027350375689,-197.0,-87.0,2713.0,10.0,-11.0,-2.0
1724512027355380571,-195.0,-86.0,2708.0,6.0,-9.0,-4.0
1724512027360354937,-195.0,-90.0,2708.0,3.0,-5.0,-7.0
1724512027365359819,-195.0,-86.0,2701.0,4.0,1.0,-1.0
1724512027370364702,-191.0,-99.0,2698.0,6.0,-1.0,-4.0
1724512027375369585,-193.0,-94.0,2707.0,2.0,-7.0,2.0
1724512027380374468,-194.0,-91.0,2707.0,15.0,-10.0,-2.0
1724512027385379351,-195.0,-91.0,2709.0,2.0,-13.0,1.0
1724512027390353716,-192.0,-91.0,2717.0,4.0,-9.0,-2.0
1724512027395358599,-191.0,-93.0,2699.0,2.0,-9.0,-1.0
1724512027400363482,-198.0,-99.0,2697.0,7.0,-10.0,2.0
1724512027405368364,-189.0,-94.0,2699.0,3.0,-8.0,0.0
1724512027410373247,-196.0,-90.0,2707.0,4.0,-13.0,-2.0
1724512027415378130,-185.0,-86.0,2709.0,4.0,-13.0,-2.0
1724512027420352495,-202.0,-99.0,2704.0,10.0,-12.0,0.0
1724512027425357378,-197.0,-99.0,2708.0,4.0,-15.0,-3.0
1724512027430362261,-195.0,-93.0,2712.0,5.0,-11.0,-2.0
1724512027435367144,-200.0,-84.0,2712.0,3.0,-7.0,-1.0
1724512027440372026,-188.0,-91.0,2708.0,2.0,-10.0,-2.0
1724512027445376909,-179.0,-85.0,2707.0,9.0,-6.0,-7.0
1724512027450381792,-190.0,-89.0,2711.0,3.0,-7.0,-7.0
1724512027455356157,-189.0,-97.0,2704.0,6.0,-7.0,0.0
1724512027460361040,-192.0,-91.0,2696.0,1.0,-3.0,-6.0
1724512027465365923,-197.0,-87.0,2708.0,3.0,-10.0,1.0
1724512027470370806,-189.0,-91.0,2716.0,4.0,-8.0,0.0
1724512027475375689,-189.0,-91.0,2716.0,3.0,-4.0,-7.0
1724512027480380571,-191.0,-86.0,2706.0,6.0,-11.0,8.0
1724512027485354937,-185.0,-89.0,2701.0,1.0,-10.0,-4.0
1724512027490359819,-188.0,-90.0,2705.0,2.0,-17.0,-4.0
1724512027495364702,-193.0,-91.0,2708.0,5.0,-9.0,-7.0
1724512027500369585,-190.0,-88.0,2709.0,1.0,-16.0,-5.0
1724512027505374468,-199.0,-94.0,2708.0,8.0,-6.0,0.0
1724512027510379351,-189.0,-92.0,2716.0,-4.0,-4.0,-3.0
1724512027515353716,-192.0,-98.0,2707.0,6.0,-12.0,-4.0
1724512027520358599,-196.0,-97.0,2702.0,8.0,-13.0,-2.0
1724512027525363482,-192.0,-90.0,2701.0,10.0,-6.0,2.0
1724512027530368364,-188.0,-91.0,2705.0,4.0,-19.0,-8.0
1724512027535373247,-184.0,-89.0,2709.0,3.0,-14.0,-5.0
1724512027540378130,-191.0,-87.0,2705.0,17.0,-6.0,-3.0
1724512027545352495,-183.0,-88.0,2698.0,6.0,-10.0,-1.0
1724512027550357378,-192.0,-99.0,2712.0,5.0,-10.0,-4.0
1724512027555362261,-196.0,-95.0,2706.0,5.0,-11.0,-2.0
1724512027560367144,-183.0,-89.0,2701.0,1.0,-6.0,-9.0
1724512027565372026,-199.0,-92.0,2699.0,8.0,-5.0,-1.0
1724512027570376909,-183.0,-86.0,2696.0,4.0,-11.0,2.0
1724512027575381792,-184.0,-91.0,2712.0,1.0,-13.0,-6.0
1724512027580356157,-196.0,-92.0,2712.0,-2.0,-6.0,-3.0
1724512027585361040,-191.0,-89.0,2711.0,1.0,-6.0,5.0
1724512027590365923,-191.0,-95.0,2707.0,5.0,2.0,-1.0
1724512027595370806,-193.0,-91.0,2703.0,5.0,-3.0,-1.0
1724512027600375689,-187.0,-93.0,2704.0,2.0,-9.0,-4.0
1724512027605380571,-192.0,-82.0,2703.0,1.0,-8.0,-4.0
1724512027610354937,-196.0,-92.0,2707.0,1.0,-15.0,-7.0
1724512027615359819,-195.0,-93.0,2707.0,8.0,-12.0,-2.0
1724512027620364702,-200.0,-103.0,2706.0,2.0,-4.0,0.0
1724512027625369585,-193.0,-92.0,2704.0,-1.0,-11.0,-1.0
1724512027630374468,-198.0,-88.0,2701.0,7.0,-15.0,0.0
1724512027635379351,-193.0,-87.0,2703.0,-3.0,-9.0,-3.0
1724512027640353716,-182.0,-81.0,2702.0,0.0,-8.0,1.0
1724512027645358599,-188.0,-82.0,2703.0,4.0,-9.0,-4.0
1724512027650363482,-187.0,-94.0,2702.0,1.0,-16.0,-1.0
1724512027655368364,-187.0,-95.0,2706.0,3.0,-3.0,-4.0
1724512027660373247,-183.0,-98.0,2701.0,4.0,-8.0,-3.0
1724512027665378130,-191.0,-92.0,2697.0,8.0,-5.0,3.0
1724512027670352495,-190.0,-95.0,2703.0,6.0,-12.0,-7.0
1724512027675357378,-191.0,-97.0,2701.0,8.0,-4.0,2.0
1724512027680362261,-197.0,-94.0,2696.0,-1.0,-7.0,2.0
1724512027685367144,-195.0,-83.0,2705.0,3.0,-15.0,-5.0
1724512027690372026,-188.0,-92.0,2711.0,-1.0,-7.0,0.0
1724512027695376909,-181.0,-89.0,2712.0,3.0,-8.0,2.0
1724512027700381792,-188.0,-85.0,2704.0,8.0,-8.0,-3.0
1724512027705356157,-186.0,-84.0,2699.0,1.0,-1.0,1.0
1724512027710361040,-191.0,-94.0,2719.0,5.0,-11.0,2.0
1724512027715365923,-188.0,-85.0,2713.0,2.0,-8.0,0.0
1724512027720370806,-190.0,-88.0,2698.0,1.0,-11.0,-4.0
1724512027725375689,-196.0,-88.0,2705.0,1.0,-8.0,-4.0
1724512027730380571,-182.0,-91.0,2706.0,0.0,-5.0,5.0
1724512027735354937,-186.0,-88.0,2716.0,2.0,-10.0,-5.0
1724512027740359819,-185.0,-93.0,2715.0,2.0,-14.0,2.0
1724512027745364702,-197.0,-95.0,2712.0,2.0,-7.0,-8.0
1724512027750369585,-192.0,-94.0,2704.0,7.0,-6.0,-4.0
1724512027755374468,-186.0,-91.0,2698.0,3.0,-7.0,5.0
1724512027760379351,-188.0,-87.0,2701.0,4.0,-11.0,-1.0
1724512027765353716,-196.0,-100.0,2703.0,7.0,-13.0,0.0
1724512027770358599,-198.0,-98.0,2699.0,4.0,-7.0,2.0
1724512027775363482,-189.0,-96.0,2713.0,1.0,-5.0,-8.0
1724512027780368364,-192.0,-87.0,2711.0,-4.0,-11.0,-4.0
1724512027785373247,-195.0,-94.0,2703.0,6.0,-4.0,-3.0
1724512027790378130,-185.0,-93.0,2702.0,4.0,-10.0,-15.0
1724512027795352495,-185.0,-82.0,2700.0,5.0,-10.0,6.0
1724512027800357378,-196.0,-90.0,2707.0,5.0,-12.0,-7.0
1724512027805362261,-201.0,-95.0,2702.0,3.0,-14.0,-1.0
1724512027810367144,-194.0,-86.0,2703.0,4.0,-5.0,-4.0
1724512027815372026,-194.0,-92.0,2702.0,4.0,-8.0,-4.0
1724512027820376909,-205.0,-88.0,2705.0,5.0,-9.0,-3.0
1724512027825381792,-193.0,-86.0,2697.0,0.0,-4.0,3.0
1724512027830356157,-195.0,-88.0,2700.0,5.0,0.0,-7.0
1724512027835361040,-201.0,-98.0,2707.0,5.0,-9.0,-3.0
1724512027840365923,-202.0,-93.0,2705.0,6.0,-11.0,-4.0
1724512027845370806,-200.0,-89.0,2706.0,6.0,-15.0,-6.0
1724512027850375689,-189.0,-90.0,2699.0,6.0,-9.0,0.0
1724512027855380571,-180.0,-91.0,2710.0,-1.0,-12.0,2.0
1724512027860354937,-187.0,-91.0,2697.0,2.0,-4.0,-3.0
1724512027865359819,-200.0,-83.0,2704.0,2.0,-11.0,-1.0
1724512027870364702,-195.0,-88.0,2706.0,-2.0,-9.0,0.0
1724512027875369585,-184.0,-88.0,2704.0,-4.0,-12.0,0.0
1724512027880374468,-186.0,-85.0,2706.0,-4.0,-9.0,-4.0
1724512027885379351,-192.0,-93.0,2704.0,2.0,-14.0,-1.0
1724512027890353716,-202.0,-88.0,2708.0,-1.0,-14.0,0.0
1724512027895358599,-200.0,-86.0,2698.0,2.0,-12.0,5.0
1724512027900363482,-204.0,-82.0,2703.0,3.0,0.0,-4.0
1724512027905368364,-194.0,-83.0,2709.0,4.0,-6.0,-5.0
1724512027910373247,-194.0,-88.0,2701.0,2.0,-7.0,-6.0
1724512027915378130,-192.0,-89.0,2715.0,4.0,-5.0,-3.0
1724512027920352495,-187.0,-84.0,2706.0,-7.0,-12.0,0.0
1724512027925357378,-195.0,-88.0,2704.0,7.0,-16.0,2.0
1724512027930362261,-193.0,-82.0,2703.0,7.0,-3.0,-5.0
1724512027935367144,-203.0,-82.0,2705.0,6.0,-8.0,-6.0
1724512027940372026,-191.0,-90.0,2707.0,1.0,-11.0,2.0
1724512027945376909,-194.0,-87.0,2707.0,8.0,-3.0,-5.0
1724512027950381792,-190.0,-97.0,2698.0,4.0,-12.0,-4.0
1724512027955356157,-200.0,-92.0,2701.0,10.0,-8.0,4.0
1724512027960361040,-196.0,-88.0,2714.0,3.0,-13.0,-3.0
1724512027965365923,-195.0,-87.0,2703.0,2.0,4.0,1.0
1724512027970370806,-192.0,-88.0,2702.0,2.0,-3.0,-3.0
1724512027975375689,-187.0,-90.0,2697.0,5.0,-4.0,-7.0
1724512027980380571,-187.0,-94.0,2692.0,6.0,-13.0,3.0
1724512027985354937,-197.0,-89.0,2707.0,9.0,-10.0,-9.0
1724512027990359819,-188.0,-84.0,2697.0,5.0,-10.0,0.0
1724512027995364702,-189.0,-93.0,2700.0,6.0,-4.0,-4.0
1724512028000369585,-189.0,-98.0,2706.0,3.0,-2.0,1.0
1724512028005374468,-191.0,-86.0,2708.0,8.0,-3.0,-8.0
1724512028010379351,-201.0,-92.0,2713.0,6.0,-10.0,-2.0
1724512028015353716,-194.0,-88.0,2707.0,7.0,-3.0,-5.0
1724512028020358599,-186.0,-77.0,2705.0,4.0,-10.0,5.0
1724512028025363482,-193.0,-85.0,2707.0,3.0,-16.0,-2.0
1724512028030368364,-194.0,-91.0,2697.0,3.0,-3.0,-4.0
1724512028035373247,-194.0,-86.0,2694.0,8.0,-10.0,8.0
1724512028040378130,-200.0,-85.0,2707.0,6.0,-14.0,-7.0
