timestamp,accelX,accelY,accelZ,gyroX,gyroY,gyroZ
1723940841.8449037,120.08399963378906,-97.0,96.0,-2740.0,5.0,8.0
1723940841.8552155,120.09400177001953,-97.0,93.0,-2743.0,2.0,-6.0
1723940841.8589394,120.0989990234375,-99.0,103.0,-2737.0,2.0,-8.0
1723940841.8689337,120.10900115966797,-105.0,100.0,-2746.0,1.0,-1.0
1723940841.8746564,120.11399841308594,-103.0,100.0,-2738.0,4.0,-3.0
1723940841.8845801,120.1240005493164,-95.0,94.0,-2755.0,0.0,-5.0
1723940841.8895752,120.12899780273438,-105.0,98.0,-2746.0,4.0,3.0
1723940841.8992746,120.13899993896484,-90.0,104.0,-2758.0,1.0,-13.0
1723940841.9044945,120.14399719238281,-95.0,95.0,-2739.0,3.0,3.0
1723940841.9144866,120.15399932861328,-95.0,93.0,-2740.0,1.0,-6.0
1723940841.919466,120.15899658203125,-95.0,102.0,-2744.0,1.0,1.0
1723940841.9295313,120.16899871826172,-103.0,92.0,-2751.0,4.0,-8.0
1723940841.934491,120.17400360107422,-98.0,93.0,-2734.0,5.0,-2.0
1723940841.944532,120.18399810791016,-101.0,82.0,-2749.0,7.0,-7.0
1723940841.9492068,120.18900299072266,-100.0,90.0,-2751.0,10.0,-11.0
1723940841.9597435,120.1989974975586,-91.0,100.0,-2747.0,10.0,2.0
1723940841.9676971,120.2040023803711,-105.0,99.0,-2738.0,2.0,-1.0
1723940841.9745312,120.21399688720703,-100.0,98.0,-2744.0,-1.0,-8.0
1723940841.9799519,120.21900177001953,-98.0,95.0,-2731.0,7.0,-9.0
1723940841.9895573,120.22899627685547,-94.0,99.0,-2758.0,2.0,-10.0
1723940841.9944167,120.23400115966797,-101.0,95.0,-2745.0,-1.0,-9.0
1723940842.0044475,120.24400329589844,-97.0,92.0,-2752.0,3.0,-5.0
1723940842.0108974,120.2490005493164,-100.0,91.0,-2736.0,6.0,9.0
1723940842.0197625,120.25900268554688,-100.0,96.0,-2752.0,5.0,-6.0
1723940842.0245116,120.26399993896484,-101.0,100.0,-2740.0,2.0,-6.0
1723940842.0348597,120.27400207519531,-104.0,105.0,-2744.0,4.0,-9.0
1723940842.0398228,120.27899932861328,-105.0,98.0,-2737.0,6.0,-15.0
1723940842.0493395,120.28900146484375,-106.0,98.0,-2737.0,3.0,-2.0
1723940842.054611,120.29399871826172,-99.0,99.0,-2737.0,10.0,16.0
1723940842.06374,120.30400085449219,-96.0,99.0,-2743.0,-3.0,-10.0
1723940842.0687547,120.30899810791016,-104.0,97.0,-2746.0,-1.0,-8.0
1723940842.079449,120.31900024414062,-100.0,102.0,-2754.0,-1.0,-11.0
1723940842.0845208,120.3239974975586,-100.0,97.0,-2738.0,10.0,-8.0
1723940842.0945873,120.33399963378906,-96.0,100.0,-2747.0,1.0,-4.0
1723940842.10168,120.33899688720703,-91.0,91.0,-2740.0,15.0,0.0
1723940842.1099937,120.3489990234375,-101.0,95.0,-2753.0,1.0,-8.0
1723940842.113857,120.35399627685547,-91.0,101.0,-2739.0,1.0,-1.0
1723940842.124544,120.36399841308594,-98.0,102.0,-2757.0,-1.0,-3.0
1723940842.1294448,120.36900329589844,-108.0,94.0,-2735.0,10.0,3.0
1723940842.139668,120.37899780273438,-94.0,93.0,-2751.0,2.0,-6.0
1723940842.1447446,120.38400268554688,-104.0,99.0,-2751.0,3.0,-7.0
1723940842.1544945,120.39399719238281,-100.0,103.0,-2744.0,2.0,7.0
1723940842.160336,120.39900207519531,-100.0,96.0,-2750.0,8.0,-7.0
1723940842.1698182,120.40899658203125,-93.0,100.0,-2741.0,4.0,-8.0
1723940842.1748152,120.41400146484375,-106.0,100.0,-2736.0,4.0,-7.0
1723940842.1843717,120.42400360107422,-105.0,106.0,-2746.0,1.0,-10.0
1723940842.189538,120.42900085449219,-113.0,97.0,-2736.0,0.0,-3.0
1723940842.1999903,120.43900299072266,-89.0,90.0,-2755.0,2.0,5.0
1723940842.2043595,120.44400024414062,-101.0,101.0,-2750.0,3.0,-6.0
1723940842.214214,120.4540023803711,-100.0,99.0,-2750.0,1.0,-2.0
1723940842.2196043,120.45899963378906,-93.0,93.0,-2744.0,6.0,-5.0
1723940842.2296734,120.46900177001953,-97.0,88.0,-2746.0,6.0,-1.0
1723940842.2337577,120.4739990234375,-96.0,95.0,-2744.0,0.0,-4.0
1723940842.2439845,120.48400115966797,-96.0,97.0,-2749.0,1.0,-9.0
1723940842.249946,120.48899841308594,-101.0,94.0,-2737.0,6.0,3.0
1723940842.261438,120.4990005493164,-96.0,103.0,-2754.0,5.0,-5.0
1723940842.2641332,120.50399780273438,-106.0,96.0,-2752.0,5.0,-13.0
1723940842.2743063,120.51399993896484,-96.0,92.0,-2752.0,-3.0,-5.0
1723940842.2792938,120.51899719238281,-99.0,98.0,-2748.0,3.0,-2.0
1723940842.2890952,120.52899932861328,-91.0,98.0,-2745.0,0.0,-8.0
1723940842.2940853,120.53399658203125,-94.0,96.0,-2740.0,3.0,-8.0
1723940842.3062582,120.54399871826172,-104.0,87.0,-2751.0,3.0,-15.0
1723940842.3095114,120.54900360107422,-99.0,103.0,-2752.0,3.0,-10.0
1723940842.3194735,120.55899810791016,-102.0,97.0,-2748.0,4.0,-7.0
1723940842.3247445,120.56400299072266,-105.0,99.0,-2741.0,0.0,-2.0
1723940842.3348193,120.5739974975586,-97.0,100.0,-2752.0,11.0,-9.0
1723940842.3394706,120.5790023803711,-97.0,94.0,-2737.0,2.0,6.0
1723940842.3491788,120.58899688720703,-98.0,90.0,-2757.0,-1.0,-13.0
1723940842.354516,120.59400177001953,-94.0,104.0,-2737.0,4.0,-3.0
1723940842.3645105,120.60399627685547,-100.0,98.0,-2741.0,8.0,-11.0
1723940842.369628,120.60900115966797,-100.0,95.0,-2742.0,3.0,-10.0
1723940842.3796065,120.61900329589844,-100.0,100.0,-2744.0,3.0,-7.0
1723940842.3839488,120.6240005493164,-97.0,101.0,-2736.0,4.0,2.0
1723940842.3945625,120.63400268554688,-96.0,95.0,-2750.0,3.0,-12.0
1723940842.3997781,120.63899993896484,-103.0,96.0,-2744.0,7.0,2.0
1723940842.4095457,120.64900207519531,-103.0,90.0,-2758.0,3.0,-11.0
1723940842.4139802,120.65399932861328,-102.0,99.0,-2743.0,9.0,-6.0
1723940842.4241414,120.66400146484375,-100.0,99.0,-2752.0,-1.0,-13.0
1723940842.4300125,120.66899871826172,-98.0,97.0,-2755.0,8.0,-12.0
1723940842.4397087,120.67900085449219,-101.0,91.0,-2754.0,7.0,-11.0
1723940842.4445705,120.68399810791016,-102.0,98.0,-2748.0,3.0,-3.0
1723940842.4546394,120.69400024414062,-98.0,103.0,-2752.0,6.0,-9.0
1723940842.4590976,120.6989974975586,-99.0,103.0,-2744.0,8.0,-5.0
1723940842.4700432,120.70899963378906,-88.0,98.0,-2748.0,10.0,-6.0
1723940842.4746094,120.71399688720703,-101.0,95.0,-2737.0,6.0,-5.0
1723940842.484351,120.7239990234375,-95.0,94.0,-2748.0,7.0,-9.0
1723940842.4895964,120.72899627685547,-96.0,95.0,-2744.0,6.0,-5.0
1723940842.5005672,120.73899841308594,-101.0,90.0,-2760.0,5.0,-8.0
1723940842.5046365,120.74400329589844,-96.0,102.0,-2733.0,2.0,0.0
1723940842.514059,120.75399780273438,-97.0,88.0,-2762.0,8.0,-1.0
1723940842.5194952,120.75900268554688,-95.0,95.0,-2738.0,5.0,-4.0
1723940842.5294902,120.76899719238281,-91.0,91.0,-2761.0,-2.0,0.0
1723940842.5342684,120.77400207519531,-97.0,100.0,-2738.0,5.0,-4.0
1723940842.5449936,120.78399658203125,-100.0,93.0,-2743.0,3.0,1.0
1723940842.5493238,120.78900146484375,-89.0,85.0,-2741.0,-5.0,6.0
1723940842.5594747,120.79900360107422,-97.0,102.0,-2756.0,2.0,-6.0
1723940842.5643318,120.80400085449219,-97.0,94.0,-2734.0,5.0,-1.0
1723940842.5746913,120.81400299072266,-98.0,95.0,-2757.0,8.0,-5.0
1723940842.5794635,120.81900024414062,-102.0,96.0,-2735.0,5.0,-3.0
1723940842.5897338,120.8290023803711,-94.0,93.0,-2762.0,7.0,-15.0
1723940842.594574,120.83399963378906,-98.0,89.0,-2736.0,9.0,-1.0
1723940842.6048756,120.84400177001953,-96.0,95.0,-2754.0,11.0,-6.0
1723940842.609024,120.8489990234375,-94.0,89.0,-2747.0,3.0,-4.0
1723940842.619046,120.85900115966797,-104.0,103.0,-2746.0,4.0,-5.0
1723940842.6244128,120.86399841308594,-98.0,104.0,-2737.0,7.0,-1.0
1723940842.6344616,120.8740005493164,-101.0,93.0,-2749.0,1.0,-10.0
1723940842.6394706,120.87899780273438,-98.0,87.0,-2742.0,10.0,-11.0
1723940842.6494718,120.88899993896484,-98.0,95.0,-2750.0,-2.0,1.0
1723940842.6545768,120.89399719238281,-89.0,84.0,-2733.0,5.0,0.0
1723940842.6641676,120.90399932861328,-89.0,91.0,-2749.0,3.0,-7.0
1723940842.670307,120.90899658203125,-97.0,94.0,-2747.0,1.0,-7.0
1723940842.6798909,120.91899871826172,-95.0,99.0,-2769.0,10.0,-5.0
1723940842.6845665,120.92400360107422,-100.0,103.0,-2733.0,3.0,-3.0
1723940842.6945875,120.93399810791016,-98.0,91.0,-2760.0,3.0,-6.0
1723940842.699563,120.93900299072266,-105.0,83.0,-2764.0,8.0,5.0
1723940842.7095556,120.9489974975586,-104.0,100.0,-2750.0,3.0,-6.0
1723940842.716261,120.9540023803711,-99.0,105.0,-2742.0,5.0,-7.0
1723940842.7242913,120.96399688720703,-107.0,97.0,-2743.0,2.0,-7.0
1723940842.729285,120.96900177001953,-102.0,96.0,-2740.0,2.0,-1.0
1723940842.7395928,120.97899627685547,-100.0,94.0,-2747.0,1.0,-4.0
1723940842.7437618,120.98400115966797,-110.0,98.0,-2741.0,10.0,-7.0
1723940842.7542045,120.99400329589844,-98.0,94.0,-2755.0,5.0,-4.0
1723940842.7591786,120.9990005493164,-92.0,91.0,-2747.0,1.0,-5.0
1723940842.7695785,121.00900268554688,-98.0,102.0,-2754.0,-1.0,4.0
1723940842.7746105,121.01399993896484,-93.0,104.0,-2741.0,3.0,-3.0
1723940842.7844818,121.02400207519531,-103.0,91.0,-2746.0,3.0,-1.0
1723940842.789564,121.02899932861328,-98.0,94.0,-2747.0,8.0,-14.0
1723940842.7996929,121.03900146484375,-99.0,104.0,-2764.0,4.0,1.0
1723940842.8049262,121.04399871826172,-95.0,99.0,-2754.0,1.0,-6.0
1723940842.8138463,121.05400085449219,-92.0,116.0,-2754.0,1.0,-6.0
1723940842.819465,121.05899810791016,-88.0,102.0,-2742.0,2.0,-13.0
1723940842.8300009,121.06900024414062,-107.0,97.0,-2758.0,10.0,-10.0
1723940842.8367696,121.0739974975586,-102.0,100.0,-2732.0,-5.0,0.0
1723940842.8445187,121.08399963378906,-93.0,95.0,-2751.0,-3.0,-12.0
1723940842.8494728,121.08899688720703,-105.0,102.0,-2744.0,1.0,-8.0
1723940842.8595579,121.0989990234375,-90.0,88.0,-2753.0,2.0,5.0
1723940842.863658,121.10399627685547,-102.0,91.0,-2737.0,2.0,-5.0
1723940842.8752089,121.11399841308594,-90.0,101.0,-2756.0,0.0,-5.0
1723940842.8791773,121.11900329589844,-96.0,98.0,-2746.0,2.0,-9.0
1723940842.8894868,121.12899780273438,-100.0,95.0,-2753.0,0.0,0.0
1723940842.8945358,121.13400268554688,-106.0,93.0,-2745.0,3.0,-6.0
1723940842.904274,121.14399719238281,-103.0,99.0,-2754.0,9.0,-8.0
1723940842.9093404,121.14900207519531,-98.0,95.0,-2737.0,11.0,-8.0
1723940842.9207494,121.15899658203125,-90.0,92.0,-2751.0,6.0,-5.0
1723940842.9245856,121.16400146484375,-99.0,97.0,-2744.0,6.0,-4.0
1723940842.9345534,121.17400360107422,-101.0,94.0,-2744.0,2.0,5.0
1723940842.939738,121.17900085449219,-97.0,93.0,-2745.0,1.0,-1.0
1723940842.9509583,121.18900299072266,-101.0,98.0,-2751.0,16.0,-6.0
1723940842.9544635,121.19400024414062,-100.0,101.0,-2733.0,1.0,-11.0
1723940842.9644768,121.2040023803711,-102.0,102.0,-2759.0,2.0,-1.0
1723940842.9698377,121.20899963378906,-100.0,96.0,-2745.0,-4.0,4.0
1723940842.9795687,121.21900177001953,-98.0,94.0,-2746.0,13.0,-3.0
1723940842.98457,121.2239990234375,-94.0,96.0,-2728.0,-3.0,-5.0
1723940842.9940066,121.23400115966797,-99.0,100.0,-2754.0,9.0,-3.0
1723940842.9998896,121.23899841308594,-99.0,95.0,-2748.0,5.0,-9.0
1723940843.0090444,121.2490005493164,-101.0,93.0,-2745.0,-4.0,-10.0
1723940843.014026,121.25399780273438,-104.0,98.0,-2739.0,5.0,-8.0
1723940843.024713,121.26399993896484,-98.0,91.0,-2741.0,5.0,-6.0
1723940843.0294948,121.26899719238281,-96.0,92.0,-2748.0,-2.0,-2.0
1723940843.0392318,121.27899932861328,-93.0,95.0,-2742.0,4.0,-4.0
1723940843.0452802,121.28399658203125,-97.0,98.0,-2750.0,5.0,-3.0
1723940843.0545547,121.29399871826172,-104.0,87.0,-2747.0,13.0,3.0
1723940843.0596213,121.29900360107422,-104.0,97.0,-2734.0,3.0,-4.0
1723940843.0695815,121.30899810791016,-99.0,96.0,-2746.0,13.0,-10.0
1723940843.0738745,121.31400299072266,-96.0,96.0,-2739.0,4.0,-8.0
1723940843.0849702,121.3239974975586,-101.0,93.0,-2756.0,9.0,-10.0
1723940843.0890124,121.3290023803711,-103.0,89.0,-2744.0,4.0,-8.0
1723940843.100034,121.33899688720703,-99.0,95.0,-2752.0,11.0,-3.0
1723940843.104205,121.34400177001953,-98.0,93.0,-2732.0,10.0,-7.0
1723940843.1141455,121.35399627685547,-101.0,105.0,-2749.0,10.0,-15.0
1723940843.1194396,121.35900115966797,-100.0,89.0,-2736.0,-1.0,-3.0
1723940843.1297245,121.36900329589844,-100.0,93.0,-2755.0,10.0,-3.0
1723940843.1347206,121.3740005493164,-93.0,94.0,-2732.0,-1.0,-14.0
1723940843.1452563,121.38400268554688,-103.0,92.0,-2740.0,1.0,-3.0
1723940843.149743,121.38899993896484,-97.0,99.0,-2741.0,4.0,-7.0
1723940843.1598375,121.39900207519531,-106.0,90.0,-2761.0,7.0,1.0
1723940843.1646242,121.40399932861328,-104.0,91.0,-2742.0,1.0,-1.0
1723940843.1743748,121.41400146484375,-90.0,100.0,-2751.0,4.0,3.0
1723940843.1805499,121.41899871826172,-105.0,98.0,-2742.0,3.0,-2.0
1723940843.18961,121.42900085449219,-99.0,97.0,-2758.0,5.0,-6.0
1723940843.194591,121.43399810791016,-98.0,96.0,-2736.0,-4.0,-8.0
1723940843.204588,121.44400024414062,-98.0,107.0,-2757.0,7.0,0.0
1723940843.209449,121.4489974975586,-96.0,103.0,-2741.0,-1.0,-5.0
1723940843.2196066,121.45899963378906,-99.0,95.0,-2761.0,7.0,3.0
1723940843.2250276,121.46399688720703,-106.0,96.0,-2740.0,8.0,4.0
1723940843.2360194,121.4739990234375,-97.0,96.0,-2742.0,9.0,-4.0
1723940843.2396765,121.47899627685547,-106.0,95.0,-2743.0,-1.0,-1.0
1723940843.2494986,121.48899841308594,-105.0,95.0,-2764.0,14.0,2.0
1723940843.254709,121.49400329589844,-105.0,95.0,-2744.0,-2.0,-12.0
1723940843.264156,121.50399780273438,-99.0,94.0,-2747.0,-2.0,-3.0
1723940843.2713282,121.50900268554688,-92.0,94.0,-2746.0,10.0,-3.0
1723940843.2792442,121.51899719238281,-111.0,95.0,-2760.0,5.0,-16.0
1723940843.2842598,121.52400207519531,-100.0,101.0,-2743.0,4.0,3.0
1723940843.2948022,121.53399658203125,-88.0,96.0,-2750.0,9.0,0.0
1723940843.2993433,121.53900146484375,-93.0,100.0,-2750.0,5.0,-8.0
1723940843.3095345,121.54900360107422,-95.0,89.0,-2754.0,7.0,-8.0
1723940843.314417,121.55400085449219,-96.0,94.0,-2741.0,0.0,-4.0
1723940843.3245854,121.56400299072266,-101.0,90.0,-2745.0,9.0,7.0
1723940843.3303523,121.56900024414062,-112.0,97.0,-2742.0,8.0,-3.0
1723940843.3396451,121.5790023803711,-101.0,98.0,-2755.0,2.0,0.0
1723940843.344455,121.58399963378906,-105.0,102.0,-2743.0,1.0,-11.0
1723940843.354106,121.59400177001953,-100.0,108.0,-2754.0,4.0,-13.0
1723940843.361092,121.5989990234375,-105.0,100.0,-2759.0,7.0,-11.0
1723940843.3696601,121.60900115966797,-94.0,98.0,-2747.0,5.0,-5.0
1723940843.3744972,121.61399841308594,-99.0,104.0,-2741.0,1.0,0.0
1723940843.3858657,121.6240005493164,-92.0,91.0,-2757.0,10.0,4.0
1723940843.3899386,121.62899780273438,-88.0,94.0,-2744.0,6.0,2.0
1723940843.3993373,121.63899993896484,-100.0,89.0,-2750.0,6.0,-6.0
1723940843.4044983,121.64399719238281,-91.0,94.0,-2735.0,4.0,-8.0
1723940843.4139717,121.65399932861328,-85.0,101.0,-2756.0,7.0,-6.0
1723940843.4191267,121.65899658203125,-81.0,93.0,-2731.0,3.0,-8.0
1723940843.4328654,121.66899871826172,-92.0,98.0,-2761.0,1.0,-4.0
1723940843.4347641,121.67400360107422,-97.0,104.0,-2739.0,5.0,-8.0
1723940843.4441705,121.68399810791016,-103.0,91.0,-2757.0,8.0,-3.0
1723940843.450933,121.68900299072266,-105.0,103.0,-2742.0,4.0,-7.0
1723940843.4596841,121.6989974975586,-101.0,94.0,-2754.0,5.0,-4.0
1723940843.464225,121.7040023803711,-90.0,105.0,-2741.0,8.0,-7.0
1723940843.4746308,121.71399688720703,-96.0,94.0,-2755.0,-1.0,3.0
1723940843.4793699,121.71900177001953,-102.0,90.0,-2737.0,2.0,-3.0
1723940843.4899263,121.72899627685547,-96.0,100.0,-2756.0,8.0,-1.0
1723940843.4946294,121.73400115966797,-95.0,106.0,-2738.0,3.0,-7.0
1723940843.5045161,121.74400329589844,-94.0,90.0,-2758.0,1.0,2.0
1723940843.509484,121.7490005493164,-101.0,100.0,-2749.0,-4.0,2.0
1723940843.5197499,121.75900268554688,-93.0,93.0,-2753.0,2.0,-8.0
1723940843.5247092,121.76399993896484,-97.0,101.0,-2741.0,1.0,0.0
1723940843.5353649,121.77400207519531,-95.0,86.0,-2756.0,7.0,-1.0
1723940843.5394754,121.77899932861328,-100.0,99.0,-2744.0,1.0,-9.0
1723940843.5496006,121.78900146484375,-100.0,95.0,-2760.0,3.0,-8.0
1723940843.5546474,121.79399871826172,-95.0,93.0,-2741.0,-4.0,-6.0
1723940843.5640566,121.80400085449219,-96.0,97.0,-2736.0,7.0,4.0
1723940843.568856,121.80899810791016,-107.0,95.0,-2753.0,-1.0,-8.0
1723940843.5791733,121.81900024414062,-94.0,91.0,-2751.0,1.0,4.0
1723940843.5843484,121.8239974975586,-98.0,97.0,-2755.0,15.0,-14.0
1723940843.5943112,121.83399963378906,-100.0,103.0,-2748.0,1.0,-8.0
1723940843.6001866,121.83899688720703,-110.0,97.0,-2748.0,5.0,-2.0
1723940843.6095505,121.8489990234375,-103.0,107.0,-2749.0,-5.0,2.0
1723940843.6140091,121.85399627685547,-99.0,96.0,-2753.0,-1.0,-8.0
1723940843.6243336,121.86399841308594,-98.0,90.0,-2738.0,2.0,2.0
1723940843.629178,121.86900329589844,-101.0,98.0,-2756.0,13.0,-7.0
1723940843.6400821,121.87899780273438,-96.0,103.0,-2748.0,5.0,-4.0
1723940843.6445143,121.88400268554688,-105.0,91.0,-2761.0,3.0,4.0
1723940843.655621,121.89399719238281,-103.0,99.0,-2735.0,7.0,-6.0
1723940843.6595755,121.89900207519531,-94.0,95.0,-2757.0,5.0,-9.0
1723940843.6699166,121.90899658203125,-88.0,96.0,-2752.0,3.0,0.0
1723940843.6739068,121.91400146484375,-88.0,96.0,-2752.0,9.0,-5.0
1723940843.683962,121.92400360107422,-105.0,97.0,-2744.0,4.0,-5.0
1723940843.6889806,121.92900085449219,-90.0,97.0,-2753.0,9.0,-5.0
1723940843.699632,121.93900299072266,-92.0,106.0,-2735.0,4.0,-7.0
1723940843.7045627,121.94400024414062,-98.0,95.0,-2759.0,6.0,-6.0
1723940843.7144127,121.9540023803711,-99.0,97.0,-2747.0,6.0,-2.0
1723940843.719552,121.95899963378906,-99.0,98.0,-2758.0,3.0,1.0
1723940843.72935,121.96900177001953,-101.0,100.0,-2738.0,6.0,2.0
1723940843.734487,121.9739990234375,-105.0,96.0,-2755.0,4.0,-8.0
1723940843.7445815,121.98400115966797,-99.0,95.0,-2739.0,13.0,-2.0
1723940843.7502344,121.98899841308594,-105.0,91.0,-2756.0,9.0,-2.0
1723940843.7598174,121.9990005493164,-96.0,92.0,-2738.0,4.0,-9.0
1723940843.766814,122.00399780273438,-103.0,94.0,-2762.0,11.0,-7.0
1723940843.774083,122.01399993896484,-101.0,92.0,-2751.0,5.0,0.0
1723940843.7794797,122.01899719238281,-99.0,88.0,-2756.0,3.0,-12.0
1723940843.7888613,122.02899932861328,-106.0,107.0,-2739.0,2.0,2.0
1723940843.7948532,122.03399658203125,-93.0,104.0,-2757.0,5.0,-3.0
1723940843.8045833,122.04399871826172,-109.0,96.0,-2741.0,1.0,-7.0
1723940843.8129005,122.04900360107422,-88.0,96.0,-2760.0,0.0,-12.0
1723940843.8192837,122.05899810791016,-96.0,108.0,-2756.0,2.0,2.0
1723940843.8242958,122.06400299072266,-90.0,98.0,-2748.0,7.0,-7.0
1723940843.8350692,122.0739974975586,-96.0,102.0,-2752.0,-5.0,-8.0
1723940843.8395176,122.0790023803711,-90.0,98.0,-2754.0,5.0,0.0
1723940843.8498397,122.08899688720703,-103.0,96.0,-2736.0,5.0,0.0
1723940843.853768,122.09400177001953,-96.0,93.0,-2760.0,3.0,3.0
1723940843.8641129,122.10399627685547,-96.0,97.0,-2745.0,2.0,-8.0
1723940843.8701532,122.10900115966797,-93.0,95.0,-2761.0,6.0,-9.0
1723940843.879613,122.11900329589844,-91.0,100.0,-2747.0,3.0,4.0
1723940843.8845758,122.1240005493164,-93.0,92.0,-2767.0,4.0,-14.0
1723940843.894603,122.13400268554688,-98.0,102.0,-2742.0,2.0,-7.0
1723940843.8996096,122.13899993896484,-103.0,98.0,-2760.0,7.0,-5.0
1723940843.9101255,122.14900207519531,-99.0,92.0,-2750.0,5.0,-5.0
1723940843.915912,122.15399932861328,-102.0,100.0,-2753.0,3.0,-3.0
1723940843.925177,122.16400146484375,-101.0,97.0,-2741.0,11.0,2.0
1723940843.9297328,122.16899871826172,-95.0,99.0,-2754.0,7.0,-14.0
1723940843.9396384,122.17900085449219,-88.0,97.0,-2754.0,5.0,-3.0
1723940843.9451098,122.18399810791016,-90.0,97.0,-2769.0,3.0,0.0
1723940843.9545653,122.19400024414062,-97.0,92.0,-2744.0,8.0,-10.0
1723940843.959602,122.1989974975586,-95.0,99.0,-2757.0,3.0,-6.0
1723940843.9696527,122.20899963378906,-103.0,99.0,-2746.0,3.0,-1.0
1723940843.9748073,122.21399688720703,-108.0,92.0,-2744.0,2.0,-3.0
1723940843.9848006,122.2239990234375,-89.0,92.0,-2753.0,8.0,-14.0
1723940843.989452,122.22899627685547,-86.0,98.0,-2765.0,8.0,-1.0
1723940843.9994295,122.23899841308594,-89.0,99.0,-2744.0,2.0,0.0
1723940844.0044403,122.24400329589844,-85.0,99.0,-2762.0,3.0,-13.0
1723940844.0144875,122.25399780273438,-99.0,98.0,-2729.0,5.0,2.0
1723940844.0195253,122.25900268554688,-107.0,96.0,-2760.0,8.0,-3.0
1723940844.0293612,122.26899719238281,-103.0,96.0,-2742.0,4.0,-9.0
1723940844.0344255,122.27400207519531,-94.0,94.0,-2760.0,7.0,8.0
1723940844.0476024,122.28399658203125,-100.0,100.0,-2738.0,1.0,-2.0
1723940844.0496054,122.28900146484375,-90.0,97.0,-2742.0,3.0,-5.0
1723940844.0595264,122.29900360107422,-103.0,96.0,-2743.0,7.0,-11.0
1723940844.0652215,122.30400085449219,-91.0,93.0,-2755.0,2.0,-9.0
1723940844.0746553,122.31400299072266,-94.0,100.0,-2748.0,-2.0,-6.0
1723940844.0795894,122.31900024414062,-88.0,96.0,-2761.0,13.0,-6.0
1723940844.0895154,122.3290023803711,-97.0,98.0,-2748.0,9.0,9.0
1723940844.0939982,122.33399963378906,-99.0,97.0,-2765.0,2.0,3.0
1723940844.1044245,122.34400177001953,-91.0,90.0,-2755.0,6.0,-4.0
1723940844.1094656,122.3489990234375,-95.0,100.0,-2745.0,5.0,0.0
1723940844.1195958,122.35900115966797,-99.0,93.0,-2741.0,3.0,0.0
1723940844.1245906,122.36399841308594,-104.0,96.0,-2758.0,7.0,-8.0
1723940844.1348112,122.3740005493164,-99.0,99.0,-2746.0,1.0,-3.0
1723940844.138851,122.37899780273438,-103.0,102.0,-2764.0,8.0,-3.0
1723940844.1493988,122.38899993896484,-113.0,100.0,-2748.0,-3.0,-1.0
1723940844.1544878,122.39399719238281,-102.0,91.0,-2741.0,4.0,-9.0
1723940844.164276,122.40399932861328,-102.0,97.0,-2738.0,10.0,0.0
1723940844.1697738,122.40899658203125,-93.0,102.0,-2754.0,7.0,-8.0
1723940844.1795554,122.41899871826172,-101.0,90.0,-2745.0,8.0,-9.0
1723940844.1845207,122.42400360107422,-90.0,88.0,-2756.0,8.0,-6.0
1723940844.1945114,122.43399810791016,-97.0,100.0,-2738.0,1.0,-5.0
1723940844.1999247,122.43900299072266,-94.0,91.0,-2774.0,8.0,-2.0
1723940844.2097242,122.4489974975586,-102.0,104.0,-2749.0,9.0,-8.0
1723940844.2143803,122.4540023803711,-104.0,102.0,-2750.0,-5.0,-7.0
1723940844.2241783,122.46399688720703,-98.0,97.0,-2732.0,8.0,-2.0
1723940844.2295945,122.46900177001953,-84.0,100.0,-2748.0,8.0,-4.0
1723940844.2397633,122.47899627685547,-103.0,102.0,-2749.0,2.0,-2.0
1723940844.2447808,122.48400115966797,-103.0,94.0,-2756.0,4.0,1.0
1723940844.2549372,122.49400329589844,-102.0,90.0,-2745.0,-1.0,-9.0
1723940844.2607703,122.4990005493164,-94.0,91.0,-2760.0,9.0,1.0
1723940844.269359,122.50900268554688,-103.0,93.0,-2747.0,4.0,-6.0
1723940844.274465,122.51399993896484,-100.0,98.0,-2764.0,5.0,-10.0
1723940844.2847788,122.52400207519531,-100.0,94.0,-2745.0,9.0,3.0
1723940844.289768,122.52899932861328,-92.0,87.0,-2767.0,-5.0,-3.0
1723940844.2994277,122.53900146484375,-101.0,93.0,-2738.0,7.0,-1.0
1723940844.3044682,122.54399871826172,-97.0,99.0,-2747.0,11.0,-5.0
1723940844.3142283,122.55400085449219,-96.0,95.0,-2748.0,7.0,-7.0
1723940844.319559,122.55899810791016,-107.0,90.0,-2756.0,3.0,1.0
1723940844.3301325,122.56900024414062,-105.0,100.0,-2738.0,4.0,-4.0
1723940844.3341482,122.5739974975586,-93.0,99.0,-2757.0,4.0,-6.0
1723940844.344188,122.58399963378906,-102.0,97.0,-2747.0,1.0,-2.0
1723940844.3493814,122.58899688720703,-101.0,100.0,-2761.0,13.0,-3.0
1723940844.3595831,122.5989990234375,-98.0,92.0,-2743.0,-2.0,2.0
1723940844.3636954,122.60399627685547,-95.0,94.0,-2752.0,1.0,-2.0
1723940844.374272,122.61399841308594,-99.0,90.0,-2734.0,6.0,-4.0
1723940844.3792598,122.61900329589844,-104.0,98.0,-2754.0,-6.0,-7.0
1723940844.3895996,122.62899780273438,-106.0,93.0,-2739.0,5.0,-2.0
1723940844.3939924,122.63400268554688,-96.0,94.0,-2745.0,7.0,4.0
1723940844.4045355,122.64399719238281,-99.0,97.0,-2741.0,5.0,-5.0
1723940844.4098487,122.64900207519531,-97.0,93.0,-2755.0,5.0,-3.0
1723940844.4199517,122.65899658203125,-103.0,96.0,-2740.0,1.0,-9.0
1723940844.4245315,122.66400146484375,-98.0,93.0,-2761.0,2.0,-1.0
1723940844.434409,122.67400360107422,-97.0,93.0,-2740.0,-5.0,-9.0
1723940844.4393978,122.67900085449219,-98.0,102.0,-2749.0,4.0,-7.0
1723940844.4502516,122.68900299072266,-89.0,88.0,-2747.0,-6.0,-12.0
1723940844.456738,122.69400024414062,-99.0,97.0,-2759.0,5.0,-12.0
1723940844.4641054,122.7040023803711,-90.0,96.0,-2734.0,4.0,-3.0
1723940844.4695466,122.70899963378906,-85.0,96.0,-2752.0,12.0,-4.0
1723940844.4795668,122.71900177001953,-105.0,102.0,-2742.0,6.0,-12.0
1723940844.484467,122.7239990234375,-103.0,95.0,-2758.0,8.0,-8.0
1723940844.4942954,122.73400115966797,-101.0,98.0,-2731.0,-5.0,0.0
1723940844.4992673,122.73899841308594,-101.0,93.0,-2749.0,1.0,-14.0
1723940844.5095272,122.7490005493164,-102.0,96.0,-2747.0,4.0,-5.0
1723940844.5139503,122.75399780273438,-99.0,89.0,-2746.0,2.0,2.0
1723940844.5246851,122.76399993896484,-98.0,94.0,-2730.0,11.0,3.0
1723940844.5295668,122.76899719238281,-100.0,91.0,-2756.0,13.0,5.0
1723940844.5391762,122.77899932861328,-95.0,101.0,-2739.0,3.0,-8.0
1723940844.5445426,122.78399658203125,-98.0,99.0,-2757.0,0.0,3.0
1723940844.5549283,122.79399871826172,-95.0,95.0,-2737.0,4.0,-9.0
1723940844.5599282,122.79900360107422,-93.0,94.0,-2754.0,5.0,-13.0
1723940844.569018,122.80899810791016,-97.0,100.0,-2751.0,9.0,-5.0
1723940844.574645,122.81400299072266,-96.0,96.0,-2753.0,3.0,0.0
1723940844.5846963,122.8239974975586,-89.0,104.0,-2745.0,6.0,-2.0
1723940844.590008,122.8290023803711,-96.0,98.0,-2760.0,0.0,-4.0
1723940844.598899,122.83899688720703,-100.0,90.0,-2760.0,-1.0,-1.0
1723940844.604161,122.84400177001953,-107.0,100.0,-2750.0,7.0,3.0
1723940844.6147335,122.85399627685547,-95.0,90.0,-2739.0,7.0,-4.0
1723940844.6196065,122.85900115966797,-94.0,92.0,-2752.0,13.0,-1.0
1723940844.6295264,122.86900329589844,-101.0,101.0,-2754.0,7.0,-1.0
1723940844.6345732,122.8740005493164,-98.0,98.0,-2758.0,8.0,-6.0
1723940844.6446266,122.88400268554688,-95.0,104.0,-2750.0,-2.0,-5.0
1723940844.649445,122.88899993896484,-96.0,92.0,-2760.0,7.0,-8.0
1723940844.6615202,122.89900207519531,-94.0,94.0,-2744.0,0.0,-3.0
1723940844.6662283,122.90399932861328,-91.0,98.0,-2755.0,5.0,4.0
1723940844.6743014,122.91400146484375,-110.0,96.0,-2738.0,0.0,-10.0
1723940844.679294,122.91899871826172,-101.0,98.0,-2757.0,3.0,-4.0
1723940844.6894808,122.92900085449219,-102.0,99.0,-2737.0,-1.0,-7.0
1723940844.6945403,122.93399810791016,-102.0,95.0,-2748.0,11.0,-13.0
1723940844.7045648,122.94400024414062,-94.0,107.0,-2743.0,1.0,-8.0
1723940844.7104232,122.9489974975586,-91.0,87.0,-2749.0,9.0,-8.0
1723940844.7198687,122.95899963378906,-104.0,93.0,-2745.0,7.0,-3.0
1723940844.7245226,122.96399688720703,-92.0,98.0,-2752.0,2.0,-10.0
1723940844.7348216,122.9739990234375,-97.0,96.0,-2739.0,-2.0,-1.0
1723940844.7428265,122.97899627685547,-95.0,92.0,-2767.0,9.0,3.0
1723940844.7493982,122.98899841308594,-100.0,98.0,-2731.0,7.0,4.0
1723940844.7544725,122.99400329589844,-92.0,96.0,-2758.0,3.0,-7.0
1723940844.7644231,123.00399780273438,-102.0,100.0,-2744.0,2.0,-9.0
1723940844.7685778,123.00900268554688,-87.0,93.0,-2750.0,2.0,-3.0
1723940844.7794802,123.01899719238281,-92.0,102.0,-2747.0,0.0,-8.0
1723940844.783973,123.02400207519531,-94.0,98.0,-2754.0,1.0,-5.0
1723940844.794661,123.03399658203125,-89.0,90.0,-2739.0,8.0,0.0
1723940844.7987683,123.03900146484375,-104.0,92.0,-2763.0,5.0,-9.0
1723940844.809145,123.04900360107422,-101.0,92.0,-2738.0,11.0,-6.0
1723940844.8141775,123.05400085449219,-99.0,90.0,-2758.0,5.0,-2.0
1723940844.8247867,123.06400299072266,-94.0,97.0,-2741.0,3.0,-8.0
1723940844.8293924,123.06900024414062,-103.0,87.0,-2746.0,1.0,-8.0
1723940844.838817,123.0790023803711,-101.0,91.0,-2745.0,8.0,-3.0
1723940844.8438182,123.08399963378906,-106.0,94.0,-2739.0,1.0,-10.0
1723940844.854475,123.09400177001953,-95.0,111.0,-2748.0,5.0,0.0
1723940844.859549,123.0989990234375,-99.0,97.0,-2763.0,6.0,-6.0
1723940844.8695498,123.10900115966797,-97.0,102.0,-2745.0,5.0,2.0
1723940844.8744366,123.11399841308594,-92.0,100.0,-2752.0,6.0,-4.0
1723940844.8839328,123.1240005493164,-106.0,100.0,-2747.0,3.0,-4.0
1723940844.8889513,123.12899780273438,-102.0,100.0,-2766.0,7.0,-11.0
1723940844.9004374,123.13899993896484,-97.0,94.0,-2740.0,11.0,-8.0
1723940844.9045494,123.14399719238281,-106.0,100.0,-2753.0,2.0,-1.0
1723940844.915519,123.15399932861328,-99.0,93.0,-2751.0,5.0,-2.0
1723940844.9195766,123.15899658203125,-102.0,94.0,-2761.0,13.0,-1.0
1723940844.9295077,123.16899871826172,-93.0,89.0,-2738.0,-1.0,0.0
1723940844.9344366,123.17400360107422,-100.0,90.0,-2760.0,-1.0,5.0
1723940844.9444818,123.18399810791016,-100.0,102.0,-2739.0,3.0,-9.0
1723940844.9493675,123.18900299072266,-97.0,93.0,-2758.0,4.0,-6.0
1723940844.9593477,123.1989974975586,-106.0,94.0,-2744.0,-1.0,-8.0
1723940844.9641526,123.2040023803711,-109.0,94.0,-2755.0,2.0,-4.0
1723940844.9745185,123.21399688720703,-94.0,94.0,-2745.0,5.0,7.0
1723940844.9795048,123.21900177001953,-96.0,98.0,-2763.0,2.0,0.0
1723940844.9895086,123.22899627685547,-91.0,86.0,-2758.0,3.0,6.0
1723940844.9945295,123.23400115966797,-93.0,81.0,-2757.0,1.0,-1.0
1723940845.0045388,123.24400329589844,-101.0,99.0,-2739.0,-3.0,-3.0
1723940845.0095162,123.2490005493164,-101.0,92.0,-2757.0,4.0,-18.0
1723940845.019397,123.25900268554688,-101.0,97.0,-2747.0,1.0,-1.0
1723940845.0248342,123.26399993896484,-94.0,97.0,-2750.0,5.0,-3.0
1723940845.0347228,123.27400207519531,-107.0,103.0,-2738.0,3.0,-1.0
1723940845.0396917,123.27899932861328,-103.0,88.0,-2752.0,8.0,-2.0
1723940845.0494003,123.28900146484375,-100.0,101.0,-2752.0,1.0,5.0
1723940845.0544856,123.29399871826172,-103.0,94.0,-2752.0,-3.0,3.0
1723940845.0640213,123.30400085449219,-106.0,102.0,-2744.0,1.0,-7.0
1723940845.0700188,123.30899810791016,-93.0,98.0,-2756.0,2.0,-5.0
1723940845.079585,123.31900024414062,-97.0,92.0,-2754.0,13.0,-1.0
1723940845.0845494,123.3239974975586,-95.0,102.0,-2763.0,10.0,0.0
1723940845.0945077,123.33399963378906,-108.0,91.0,-2746.0,9.0,-5.0
1723940845.0995188,123.33899688720703,-97.0,111.0,-2750.0,2.0,3.0
1723940845.109829,123.3489990234375,-105.0,94.0,-2742.0,11.0,-4.0
1723940845.1148245,123.35399627685547,-95.0,91.0,-2751.0,8.0,-4.0
1723940845.1244302,123.36399841308594,-97.0,98.0,-2735.0,4.0,-7.0
1723940845.129589,123.36900329589844,-94.0,101.0,-2755.0,6.0,-8.0
1723940845.1395543,123.37899780273438,-95.0,99.0,-2751.0,4.0,-12.0
1723940845.1444163,123.38400268554688,-95.0,101.0,-2750.0,-3.0,-3.0
1723940845.1548176,123.39399719238281,-99.0,110.0,-2753.0,-2.0,2.0
1723940845.1598177,123.39900207519531,-94.0,102.0,-2752.0,4.0,-7.0
1723940845.170073,123.40899658203125,-99.0,89.0,-2758.0,6.0,7.0
1723940845.1745636,123.41400146484375,-102.0,94.0,-2756.0,4.0,-7.0
1723940845.1840916,123.42400360107422,-108.0,97.0,-2741.0,5.0,-6.0
1723940845.1922708,123.42900085449219,-94.0,90.0,-2761.0,-1.0,5.0
1723940845.200134,123.43900299072266,-100.0,91.0,-2745.0,4.0,-4.0
1723940845.2044702,123.44400024414062,-102.0,94.0,-2757.0,4.0,-2.0
1723940845.2141528,123.4540023803711,-101.0,91.0,-2746.0,1.0,3.0
1723940845.21929,123.45899963378906,-100.0,91.0,-2748.0,6.0,-9.0
1723940845.229231,123.46900177001953,-96.0,90.0,-2753.0,4.0,-3.0
1723940845.2345176,123.4739990234375,-99.0,104.0,-2755.0,-3.0,0.0
1723940845.2448466,123.48400115966797,-102.0,90.0,-2747.0,6.0,-4.0
1723940845.249849,123.48899841308594,-89.0,92.0,-2751.0,5.0,0.0
1723940845.259577,123.4990005493164,-90.0,95.0,-2759.0,7.0,0.0
1723940845.2640104,123.50399780273438,-97.0,92.0,-2752.0,3.0,-9.0
1723940845.2764797,123.51399993896484,-103.0,104.0,-2752.0,5.0,-3.0
1723940845.2795446,123.51899719238281,-97.0,96.0,-2760.0,2.0,0.0
1723940845.2895286,123.52899932861328,-103.0,100.0,-2750.0,3.0,-2.0
1723940845.294553,123.53399658203125,-101.0,105.0,-2754.0,4.0,-3.0
1723940845.304687,123.54399871826172,-94.0,95.0,-2748.0,5.0,-7.0
1723940845.309671,123.54900360107422,-96.0,98.0,-2744.0,8.0,-4.0
1723940845.3190875,123.55899810791016,-96.0,96.0,-2751.0,6.0,1.0
1723940845.3246245,123.56400299072266,-104.0,94.0,-2731.0,3.0,-15.0
1723940845.3339012,123.5739974975586,-96.0,104.0,-2759.0,11.0,6.0
1723940845.3389242,123.5790023803711,-91.0,102.0,-2752.0,1.0,-12.0
1723940845.3498013,123.58899688720703,-100.0,100.0,-2760.0,6.0,3.0
1723940845.3544934,123.59400177001953,-102.0,96.0,-2738.0,-4.0,-10.0
1723940845.3643508,123.60399627685547,-95.0,102.0,-2757.0,5.0,-4.0
1723940845.3694665,123.60900115966797,-109.0,95.0,-2747.0,1.0,0.0
1723940845.379578,123.61900329589844,-90.0,94.0,-2765.0,6.0,-1.0
1723940845.384501,123.6240005493164,-93.0,104.0,-2746.0,4.0,-4.0
1723940845.3949018,123.63400268554688,-106.0,101.0,-2757.0,11.0,-11.0
1723940845.3993285,123.63899993896484,-102.0,94.0,-2749.0,4.0,-14.0
1723940845.4092498,123.64900207519531,-97.0,92.0,-2760.0,5.0,-2.0
1723940845.4141135,123.65399932861328,-100.0,93.0,-2750.0,6.0,-8.0
1723940845.424622,123.66400146484375,-99.0,95.0,-2752.0,7.0,-9.0
1723940845.429543,123.66899871826172,-102.0,99.0,-2758.0,4.0,-7.0
1723940845.4401014,123.67900085449219,-99.0,89.0,-2751.0,8.0,3.0
1723940845.4442918,123.68399810791016,-99.0,90.0,-2744.0,4.0,-15.0
1723940845.4541004,123.69400024414062,-96.0,92.0,-2762.0,9.0,1.0
1723940845.4596474,123.6989974975586,-94.0,99.0,-2753.0,4.0,-1.0
1723940845.4695022,123.70899963378906,-97.0,98.0,-2752.0,11.0,-3.0
1723940845.4745402,123.71399688720703,-96.0,104.0,-2746.0,4.0,1.0
1723940845.484473,123.7239990234375,-98.0,93.0,-2762.0,1.0,-3.0
1723940845.4896042,123.72899627685547,-89.0,89.0,-2757.0,7.0,-10.0
1723940845.4993517,123.73899841308594,-103.0,93.0,-2756.0,4.0,-3.0
1723940845.5046213,123.74400329589844,-95.0,91.0,-2739.0,4.0,-4.0
1723940845.5138478,123.75399780273438,-94.0,101.0,-2758.0,-4.0,10.0
1723940845.5208156,123.75900268554688,-96.0,97.0,-2747.0,4.0,0.0
1723940845.5296242,123.76899719238281,-90.0,94.0,-2765.0,8.0,-10.0
1723940845.5358222,123.77400207519531,-105.0,91.0,-2747.0,-5.0,-4.0
1723940845.5447986,123.78399658203125,-93.0,93.0,-2747.0,7.0,-8.0
1723940845.5496268,123.78900146484375,-102.0,90.0,-2750.0,0.0,-2.0
1723940845.5595636,123.79900360107422,-96.0,92.0,-2741.0,1.0,-5.0
1723940845.564655,123.80400085449219,-90.0,101.0,-2747.0,0.0,-1.0
1723940845.575161,123.81400299072266,-94.0,110.0,-2742.0,5.0,-9.0
1723940845.5794017,123.81900024414062,-97.0,98.0,-2743.0,4.0,0.0
1723940845.589599,123.8290023803711,-90.0,86.0,-2755.0,7.0,-12.0
1723940845.594592,123.83399963378906,-97.0,98.0,-2737.0,6.0,-9.0
1723940845.6045418,123.84400177001953,-101.0,92.0,-2748.0,10.0,-2.0
1723940845.609297,123.8489990234375,-93.0,95.0,-2748.0,0.0,-1.0
1723940845.619553,123.85900115966797,-96.0,96.0,-2754.0,1.0,0.0
1723940845.6244676,123.86399841308594,-93.0,97.0,-2740.0,-1.0,-2.0
1723940845.6344762,123.8740005493164,-102.0,104.0,-2750.0,5.0,-4.0
1723940845.639612,123.87899780273438,-93.0,94.0,-2742.0,-1.0,-9.0
1723940845.649949,123.88899993896484,-93.0,90.0,-2756.0,5.0,-7.0
1723940845.6549807,123.89399719238281,-105.0,91.0,-2753.0,6.0,-15.0
1723940845.664173,123.90399932861328,-98.0,91.0,-2753.0,5.0,12.0
1723940845.6695058,123.90899658203125,-98.0,93.0,-2743.0,3.0,-7.0
1723940845.6794996,123.91899871826172,-98.0,96.0,-2737.0,11.0,5.0
1723940845.6864412,123.92400360107422,-94.0,90.0,-2748.0,-3.0,-4.0
1723940845.6945527,123.93399810791016,-102.0,104.0,-2741.0,3.0,-4.0
1723940845.6993484,123.93900299072266,-102.0,105.0,-2757.0,2.0,-8.0
1723940845.7090976,123.9489974975586,-94.0,97.0,-2748.0,0.0,-5.0
1723940845.7140942,123.9540023803711,-99.0,94.0,-2754.0,1.0,-6.0
1723940845.7252254,123.96399688720703,-102.0,99.0,-2751.0,13.0,-5.0
1723940845.7294743,123.96900177001953,-95.0,92.0,-2752.0,4.0,7.0
1723940845.74078,123.97899627685547,-109.0,97.0,-2740.0,14.0,-2.0
1723940845.7446668,123.98400115966797,-90.0,87.0,-2759.0,9.0,-6.0
1723940845.7544832,123.99400329589844,-101.0,96.0,-2736.0,4.0,-3.0
1723940845.7594543,123.9990005493164,-97.0,87.0,-2742.0,5.0,-6.0
1723940845.7696233,124.00900268554688,-95.0,103.0,-2736.0,11.0,-2.0
1723940845.7746227,124.01399993896484,-97.0,102.0,-2761.0,9.0,-10.0
1723940845.784449,124.02400207519531,-101.0,97.0,-2735.0,2.0,-1.0
1723940845.789456,124.02899932861328,-100.0,97.0,-2763.0,9.0,-1.0
1723940845.800013,124.03900146484375,-95.0,101.0,-2743.0,4.0,-14.0
1723940845.8060918,124.04399871826172,-97.0,99.0,-2755.0,6.0,-4.0
1723940845.8141274,124.05400085449219,-93.0,95.0,-2740.0,-3.0,1.0
1723940845.8193877,124.05899810791016,-93.0,88.0,-2749.0,5.0,-2.0
1723940845.8294377,124.06900024414062,-96.0,101.0,-2749.0,-1.0,3.0
1723940845.8346026,124.0739974975586,-99.0,98.0,-2763.0,2.0,-2.0
1723940845.8449225,124.08399963378906,-100.0,95.0,-2744.0,2.0,3.0
1723940845.8490353,124.08899688720703,-96.0,101.0,-2752.0,9.0,0.0
1723940845.8595238,124.0989990234375,-90.0,101.0,-2753.0,-1.0,-7.0
1723940845.864772,124.10399627685547,-98.0,91.0,-2759.0,11.0,-6.0
1723940845.874847,124.11399841308594,-106.0,96.0,-2731.0,-3.0,-4.0
1723940845.8796902,124.11900329589844,-95.0,99.0,-2758.0,3.0,-4.0
1723940845.8903263,124.12899780273438,-99.0,97.0,-2741.0,5.0,-6.0
1723940845.8943539,124.13400268554688,-98.0,96.0,-2761.0,3.0,1.0
1723940845.905846,124.14399719238281,-101.0,96.0,-2737.0,13.0,-8.0
1723940845.9095974,124.14900207519531,-85.0,91.0,-2747.0,1.0,-4.0
1723940845.9200714,124.15899658203125,-96.0,99.0,-2746.0,8.0,0.0
1723940845.9252372,124.16400146484375,-103.0,96.0,-2761.0,-3.0,-11.0
1723940845.9345107,124.17400360107422,-106.0,95.0,-2743.0,7.0,-1.0
1723940845.9393904,124.17900085449219,-102.0,96.0,-2762.0,8.0,1.0
1723940845.9488819,124.18900299072266,-98.0,91.0,-2744.0,6.0,3.0
1723940845.9544632,124.19400024414062,-102.0,98.0,-2759.0,2.0,11.0
1723940845.9643264,124.2040023803711,-101.0,107.0,-2735.0,4.0,-6.0
1723940845.9695082,124.20899963378906,-106.0,92.0,-2756.0,5.0,-3.0
1723940845.9796023,124.21900177001953,-93.0,99.0,-2745.0,8.0,-4.0
1723940845.9848435,124.2239990234375,-94.0,100.0,-2752.0,7.0,-5.0
1723940845.994865,124.23400115966797,-95.0,95.0,-2740.0,4.0,2.0
1723940845.999749,124.23899841308594,-91.0,101.0,-2753.0,4.0,-6.0
1723940846.0108278,124.2490005493164,-106.0,89.0,-2737.0,1.0,3.0
1723940846.0137413,124.25399780273438,-99.0,97.0,-2741.0,12.0,-5.0
1723940846.024252,124.26399993896484,-94.0,89.0,-2729.0,1.0,-1.0
1723940846.0290685,124.26899719238281,-104.0,97.0,-2761.0,8.0,-7.0
1723940846.0395052,124.27899932861328,-98.0,96.0,-2742.0,8.0,-10.0
1723940846.0442445,124.28399658203125,-93.0,99.0,-2753.0,1.0,-5.0
1723940846.054647,124.29399871826172,-98.0,98.0,-2754.0,3.0,-5.0
1723940846.0595734,124.29900360107422,-94.0,92.0,-2756.0,9.0,-1.0
1723940846.0694935,124.30899810791016,-93.0,112.0,-2736.0,6.0,-8.0
1723940846.074529,124.31400299072266,-85.0,95.0,-2754.0,3.0,-7.0
1723940846.084477,124.3239974975586,-93.0,94.0,-2743.0,8.0,-1.0
1723940846.0898964,124.3290023803711,-94.0,98.0,-2755.0,9.0,1.0
1723940846.0998178,124.33899688720703,-94.0,92.0,-2752.0,5.0,-5.0
1723940846.104848,124.34400177001953,-97.0,89.0,-2760.0,3.0,-1.0
1723940846.1140182,124.35399627685547,-98.0,91.0,-2730.0,3.0,3.0
1723940846.1194403,124.35900115966797,-95.0,100.0,-2753.0,6.0,-1.0
1723940846.1330674,124.36900329589844,-100.0,94.0,-2744.0,-2.0,-13.0
1723940846.134767,124.3740005493164,-104.0,101.0,-2752.0,7.0,-2.0
1723940846.1447418,124.38400268554688,-101.0,99.0,-2747.0,-4.0,-5.0
1723940846.1502962,124.38899993896484,-104.0,101.0,-2757.0,-2.0,-8.0
1723940846.159957,124.39900207519531,-96.0,98.0,-2739.0,1.0,-7.0
1723940846.1635828,124.40399932861328,-91.0,102.0,-2763.0,12.0,-2.0
1723940846.1746423,124.41400146484375,-92.0,89.0,-2733.0,0.0,-12.0
1723940846.1796658,124.41899871826172,-94.0,108.0,-2754.0,3.0,8.0
1723940846.1894462,124.42900085449219,-99.0,94.0,-2740.0,2.0,0.0
1723940846.1945524,124.43399810791016,-111.0,86.0,-2761.0,2.0,3.0
1723940846.2048643,124.44400024414062,-99.0,95.0,-2740.0,1.0,-4.0
1723940846.2096243,124.4489974975586,-102.0,102.0,-2746.0,6.0,-10.0
1723940846.2194798,124.45899963378906,-102.0,95.0,-2745.0,-2.0,2.0
1723940846.224633,124.46399688720703,-94.0,96.0,-2750.0,2.0,6.0
1723940846.2342694,124.4739990234375,-104.0,97.0,-2741.0,8.0,-2.0
1723940846.239294,124.47899627685547,-102.0,92.0,-2751.0,4.0,-3.0
1723940846.2495272,124.48899841308594,-103.0,97.0,-2740.0,2.0,-17.0
1723940846.25478,124.49400329589844,-99.0,92.0,-2757.0,2.0,0.0
1723940846.2645159,124.50399780273438,-98.0,102.0,-2739.0,-2.0,-11.0
1723940846.26955,124.50900268554688,-99.0,96.0,-2763.0,-1.0,-3.0
1723940846.2789352,124.51899719238281,-100.0,97.0,-2738.0,5.0,-8.0
1723940846.2845209,124.52400207519531,-95.0,92.0,-2754.0,4.0,-18.0
1723940846.2944028,124.53399658203125,-100.0,94.0,-2732.0,3.0,-2.0
1723940846.3004024,124.53900146484375,-97.0,101.0,-2757.0,10.0,1.0
1723940846.3094015,124.54900360107422,-96.0,93.0,-2743.0,2.0,-6.0
1723940846.3144035,124.55400085449219,-88.0,95.0,-2747.0,-1.0,1.0
1723940846.3244019,124.56400299072266,-105.0,97.0,-2741.0,0.0,-11.0
1723940846.3294027,124.56900024414062,-104.0,100.0,-2747.0,8.0,-1.0
1723940846.3391385,124.5790023803711,-91.0,100.0,-2753.0,2.0,-8.0
1723940846.3443165,124.58399963378906,-99.0,111.0,-2750.0,1.0,3.0
1723940846.354599,124.59400177001953,-104.0,100.0,-2742.0,0.0,-7.0
1723940846.3656,124.5989990234375,-93.0,95.0,-2756.0,7.0,1.0
1723940846.369597,124.60900115966797,-96.0,95.0,-2749.0,1.0,-1.0
1723940846.3735976,124.61399841308594,-101.0,97.0,-2755.0,2.0,-9.0
1723940846.3835979,124.6240005493164,-100.0,90.0,-2730.0,1.0,-3.0
1723940846.3895974,124.62899780273438,-98.0,93.0,-2765.0,1.0,1.0
1723940846.3985984,124.63899993896484,-100.0,101.0,-2736.0,7.0,-8.0
1723940846.4042408,124.64399719238281,-101.0,98.0,-2751.0,7.0,2.0
1723940846.414242,124.65399932861328,-102.0,102.0,-2738.0,17.0,-11.0
1723940846.4202404,124.65899658203125,-104.0,96.0,-2759.0,5.0,-2.0
1723940846.4292405,124.66899871826172,-94.0,101.0,-2737.0,3.0,-2.0
1723940846.4342413,124.67400360107422,-89.0,104.0,-2763.0,0.0,-6.0
1723940846.4442415,124.68399810791016,-94.0,96.0,-2743.0,9.0,-7.0
1723940846.4492478,124.68900299072266,-96.0,94.0,-2767.0,-1.0,-1.0
1723940846.4592426,124.6989974975586,-102.0,91.0,-2734.0,0.0,0.0
1723940846.4642215,124.7040023803711,-100.0,96.0,-2750.0,-1.0,-1.0
1723940846.474225,124.71399688720703,-100.0,95.0,-2740.0,4.0,-12.0
1723940846.479221,124.71900177001953,-95.0,98.0,-2740.0,2.0,0.0
1723940846.4892383,124.72899627685547,-98.0,88.0,-2746.0,3.0,-8.0
1723940846.4944267,124.73400115966797,-101.0,98.0,-2757.0,2.0,-1.0
1723940846.505128,124.74400329589844,-92.0,90.0,-2735.0,1.0,-6.0
1723940846.5093975,124.7490005493164,-87.0,103.0,-2759.0,2.0,-3.0
1723940846.5193927,124.75900268554688,-91.0,96.0,-2733.0,8.0,-13.0
1723940846.524409,124.76399993896484,-88.0,97.0,-2748.0,12.0,-2.0
1723940846.5354455,124.77400207519531,-100.0,93.0,-2748.0,3.0,-13.0
1723940846.5407863,124.77899932861328,-97.0,95.0,-2770.0,5.0,2.0
1723940846.5497906,124.78900146484375,-98.0,98.0,-2747.0,2.0,-11.0
1723940846.5544245,124.79399871826172,-101.0,94.0,-2739.0,-1.0,1.0
1723940846.5644677,124.80400085449219,-94.0,99.0,-2734.0,2.0,0.0
1723940846.5695653,124.80899810791016,-93.0,97.0,-2750.0,10.0,-4.0
1723940846.5797088,124.81900024414062,-101.0,100.0,-2740.0,1.0,-3.0
1723940846.5843885,124.8239974975586,-97.0,99.0,-2755.0,11.0,-2.0
1723940846.594718,124.83399963378906,-103.0,99.0,-2732.0,-1.0,-2.0
1723940846.5995724,124.83899688720703,-94.0,101.0,-2755.0,16.0,-3.0
1723940846.60951,124.8489990234375,-96.0,105.0,-2747.0,-4.0,2.0
1723940846.614155,124.85399627685547,-91.0,102.0,-2756.0,-2.0,3.0
1723940846.6264918,124.86399841308594,-103.0,92.0,-2751.0,5.0,-10.0
1723940846.629538,124.86900329589844,-94.0,94.0,-2753.0,4.0,5.0
1723940846.6392481,124.87899780273438,-107.0,87.0,-2749.0,4.0,-11.0
1723940846.6442635,124.88400268554688,-97.0,92.0,-2745.0,3.0,2.0
1723940846.6545043,124.89399719238281,-98.0,90.0,-2744.0,-5.0,-2.0
1723940846.659519,124.89900207519531,-96.0,96.0,-2755.0,2.0,-6.0
1723940846.6696448,124.90899658203125,-91.0,98.0,-2745.0,-4.0,3.0
1723940846.674533,124.91400146484375,-93.0,95.0,-2764.0,13.0,2.0
1723940846.6841462,124.92400360107422,-110.0,89.0,-2741.0,4.0,-7.0
1723940846.6892986,124.92900085449219,-101.0,103.0,-2759.0,0.0,-2.0
1723940846.7002485,124.93900299072266,-92.0,93.0,-2739.0,3.0,-8.0
1723940846.7045488,124.94400024414062,-92.0,94.0,-2756.0,5.0,-5.0
1723940846.7145565,124.9540023803711,-103.0,92.0,-2729.0,10.0,-4.0
1723940846.719441,124.95899963378906,-94.0,98.0,-2753.0,10.0,-1.0
1723940846.7298422,124.96900177001953,-98.0,97.0,-2733.0,-1.0,-2.0
1723940846.734803,124.9739990234375,-96.0,91.0,-2742.0,4.0,3.0
1723940846.744529,124.98400115966797,-104.0,96.0,-2737.0,-4.0,-7.0
1723940846.749327,124.98899841308594,-97.0,89.0,-2749.0,1.0,6.0
1723940846.7597208,124.9990005493164,-104.0,88.0,-2739.0,0.0,-4.0
1723940846.7646282,125.00399780273438,-92.0,95.0,-2754.0,1.0,3.0
1723940846.7745736,125.01399993896484,-90.0,95.0,-2739.0,-2.0,-10.0
1723940846.7795627,125.01899719238281,-96.0,94.0,-2757.0,9.0,0.0
1723940846.788843,125.02899932861328,-95.0,103.0,-2744.0,5.0,-8.0
1723940846.7938538,125.03399658203125,-97.0,97.0,-2740.0,4.0,-5.0
1723940846.8045228,125.04399871826172,-99.0,94.0,-2730.0,0.0,-9.0
1723940846.8098745,125.04900360107422,-91.0,100.0,-2755.0,10.0,6.0
1723940846.8195662,125.05899810791016,-100.0,95.0,-2756.0,6.0,-14.0
1723940846.824878,125.06400299072266,-91.0,98.0,-2756.0,7.0,-3.0
1723940846.8338587,125.0739974975586,-96.0,96.0,-2748.0,4.0,-5.0
1723940846.838922,125.0790023803711,-97.0,88.0,-2755.0,6.0,-4.0
1723940846.8494117,125.08899688720703,-100.0,97.0,-2741.0,9.0,-4.0
1723940846.8545685,125.09400177001953,-100.0,90.0,-2745.0,1.0,-8.0
1723940846.8638783,125.10399627685547,-92.0,103.0,-2743.0,10.0,-4.0
1723940846.8697822,125.10900115966797,-91.0,101.0,-2746.0,1.0,2.0
1723940846.8792274,125.11900329589844,-95.0,101.0,-2747.0,5.0,-7.0
1723940846.8845084,125.1240005493164,-96.0,103.0,-2746.0,2.0,0.0
1723940846.894482,125.13400268554688,-99.0,106.0,-2740.0,-1.0,-11.0
1723940846.8992355,125.13899993896484,-101.0,102.0,-2759.0,3.0,-10.0
1723940846.909415,125.14900207519531,-98.0,99.0,-2739.0,2.0,0.0
1723940846.913861,125.15399932861328,-94.0,99.0,-2760.0,-1.0,-2.0
1723940846.924639,125.16400146484375,-95.0,100.0,-2733.0,4.0,-7.0
1723940846.9293237,125.16899871826172,-95.0,102.0,-2748.0,6.0,-2.0
1723940846.9394453,125.17900085449219,-97.0,97.0,-2749.0,5.0,-7.0
1723940846.9445179,125.18399810791016,-107.0,94.0,-2760.0,2.0,-4.0
1723940846.9541001,125.19400024414062,-100.0,99.0,-2739.0,-2.0,-12.0
1723940846.959522,125.1989974975586,-94.0,94.0,-2753.0,2.0,2.0
1723940846.969786,125.20899963378906,-105.0,98.0,-2744.0,6.0,-19.0
1723940846.974657,125.21399688720703,-93.0,95.0,-2753.0,3.0,-8.0
1723940846.9844928,125.2239990234375,-96.0,92.0,-2737.0,2.0,-1.0
1723940846.989022,125.22899627685547,-99.0,90.0,-2744.0,3.0,0.0
1723940846.999958,125.23899841308594,-90.0,94.0,-2741.0,1.0,-3.0
1723940847.0044947,125.24400329589844,-95.0,101.0,-2756.0,11.0,4.0
1723940847.0160406,125.25399780273438,-94.0,99.0,-2739.0,1.0,-5.0
1723940847.0195146,125.25900268554688,-98.0,97.0,-2754.0,0.0,-2.0
1723940847.0308278,125.26899719238281,-103.0,103.0,-2748.0,6.0,-4.0
1723940847.0349514,125.27400207519531,-88.0,93.0,-2747.0,1.0,6.0
1723940847.0448105,125.28399658203125,-100.0,110.0,-2740.0,-1.0,-1.0
1723940847.0493724,125.28900146484375,-99.0,92.0,-2766.0,3.0,1.0
1723940847.0594652,125.29900360107422,-92.0,101.0,-2744.0,8.0,-4.0
1723940847.0644658,125.30400085449219,-91.0,97.0,-2754.0,2.0,-2.0
1723940847.074625,125.31400299072266,-104.0,95.0,-2741.0,2.0,-8.0
1723940847.0787697,125.31900024414062,-97.0,98.0,-2762.0,14.0,-9.0
1723940847.0887485,125.3290023803711,-92.0,94.0,-2742.0,-3.0,-13.0
1723940847.0945506,125.33399963378906,-102.0,99.0,-2753.0,5.0,-1.0
1723940847.1048515,125.34400177001953,-104.0,103.0,-2742.0,0.0,-3.0
1723940847.1095421,125.3489990234375,-101.0,97.0,-2751.0,4.0,2.0
1723940847.1195073,125.35900115966797,-97.0,98.0,-2744.0,1.0,-2.0
1723940847.1245248,125.36399841308594,-86.0,90.0,-2746.0,7.0,-4.0
1723940847.1348495,125.3740005493164,-93.0,99.0,-2734.0,1.0,-5.0
1723940847.140114,125.37899780273438,-85.0,101.0,-2747.0,-3.0,-7.0
1723940847.149371,125.38899993896484,-100.0,95.0,-2738.0,-1.0,-17.0
1723940847.1545508,125.39399719238281,-102.0,92.0,-2745.0,4.0,-6.0
1723940847.1639843,125.40399932861328,-100.0,91.0,-2745.0,1.0,-6.0
1723940847.169087,125.40899658203125,-87.0,96.0,-2759.0,10.0,-5.0
1723940847.1792803,125.41899871826172,-101.0,102.0,-2733.0,0.0,-7.0
1723940847.184274,125.42400360107422,-97.0,98.0,-2752.0,7.0,6.0
1723940847.1944823,125.43399810791016,-97.0,100.0,-2740.0,-3.0,-7.0
1723940847.1994238,125.43900299072266,-104.0,96.0,-2763.0,3.0,4.0
1723940847.208998,125.4489974975586,-98.0,92.0,-2742.0,6.0,-13.0
1723940847.2147558,125.4540023803711,-98.0,100.0,-2749.0,4.0,-3.0
1723940847.224533,125.46399688720703,-101.0,95.0,-2744.0,9.0,-4.0
1723940847.2298572,125.46900177001953,-95.0,97.0,-2754.0,1.0,2.0
1723940847.239615,125.47899627685547,-101.0,93.0,-2742.0,9.0,0.0
1723940847.244549,125.48400115966797,-85.0,94.0,-2757.0,0.0,3.0
1723940847.2546976,125.49400329589844,-105.0,97.0,-2734.0,1.0,-7.0
1723940847.2587163,125.4990005493164,-100.0,101.0,-2761.0,1.0,2.0
1723940847.2694588,125.50900268554688,-102.0,94.0,-2728.0,0.0,2.0
1723940847.275144,125.51399993896484,-93.0,99.0,-2744.0,3.0,-6.0
1723940847.2849286,125.52400207519531,-92.0,99.0,-2745.0,5.0,3.0
1723940847.289865,125.52899932861328,-98.0,100.0,-2761.0,4.0,-10.0
1723940847.299482,125.53900146484375,-98.0,88.0,-2741.0,2.0,-7.0
1723940847.304458,125.54399871826172,-100.0,108.0,-2760.0,-5.0,1.0
1723940847.31416,125.55400085449219,-101.0,93.0,-2731.0,-4.0,-8.0
1723940847.3242931,125.55899810791016,-101.0,89.0,-2746.0,10.0,-2.0
1723940847.3293235,125.56900024414062,-101.0,93.0,-2742.0,4.0,-5.0
1723940847.3345377,125.5739974975586,-98.0,92.0,-2755.0,5.0,1.0
1723940847.3443475,125.58399963378906,-102.0,98.0,-2742.0,6.0,-8.0
1723940847.3499992,125.58899688720703,-100.0,93.0,-2757.0,4.0,1.0
1723940847.3595285,125.5989990234375,-98.0,94.0,-2739.0,-1.0,1.0
1723940847.367667,125.60399627685547,-96.0,108.0,-2749.0,6.0,1.0
1723940847.3737373,125.61399841308594,-86.0,99.0,-2751.0,-1.0,-8.0
1723940847.3799777,125.61900329589844,-101.0,95.0,-2763.0,10.0,-7.0
1723940847.3895528,125.62899780273438,-96.0,104.0,-2751.0,3.0,-7.0
1723940847.3945696,125.63400268554688,-106.0,98.0,-2753.0,3.0,-1.0
1723940847.4045274,125.64399719238281,-90.0,99.0,-2734.0,7.0,0.0
1723940847.4105692,125.64900207519531,-97.0,100.0,-2762.0,4.0,10.0
1723940847.4198556,125.65899658203125,-95.0,96.0,-2731.0,7.0,-8.0
1723940847.4268403,125.66400146484375,-97.0,109.0,-2750.0,2.0,-7.0
1723940847.4345412,125.67400360107422,-96.0,99.0,-2741.0,8.0,-12.0
1723940847.4395218,125.67900085449219,-90.0,101.0,-2755.0,7.0,-8.0
1723940847.4496448,125.68900299072266,-97.0,100.0,-2747.0,8.0,5.0
1723940847.454753,125.69400024414062,-96.0,86.0,-2758.0,4.0,-3.0
1723940847.4648073,125.7040023803711,-97.0,100.0,-2743.0,-2.0,2.0
1723940847.4690378,125.70899963378906,-86.0,95.0,-2753.0,5.0,-2.0
1723940847.4791853,125.71900177001953,-102.0,94.0,-2753.0,-6.0,-11.0
1723940847.4847019,125.7239990234375,-82.0,101.0,-2755.0,9.0,-5.0
1723940847.493925,125.73400115966797,-97.0,91.0,-2731.0,1.0,-3.0
1723940847.499008,125.73899841308594,-93.0,92.0,-2758.0,8.0,-7.0
1723940847.5095258,125.7490005493164,-98.0,89.0,-2751.0,-2.0,0.0
1723940847.5140436,125.75399780273438,-97.0,85.0,-2747.0,4.0,-1.0
1723940847.5244336,125.76399993896484,-99.0,95.0,-2737.0,-3.0,-8.0
1723940847.5291576,125.76899719238281,-93.0,101.0,-2754.0,1.0,0.0
1723940847.5420463,125.77899932861328,-104.0,91.0,-2744.0,7.0,-3.0
1723940847.5451822,125.78399658203125,-97.0,97.0,-2747.0,10.0,-11.0
1723940847.55457,125.79399871826172,-107.0,84.0,-2741.0,3.0,-7.0
1723940847.5589392,125.79900360107422,-99.0,91.0,-2753.0,7.0,0.0
1723940847.5690863,125.80899810791016,-100.0,101.0,-2743.0,-2.0,-3.0
1723940847.5741935,125.81400299072266,-102.0,99.0,-2755.0,2.0,-5.0
1723940847.5850387,125.8239974975586,-93.0,100.0,-2734.0,11.0,-7.0
1723940847.589537,125.8290023803711,-92.0,113.0,-2753.0,3.0,-4.0
1723940847.599522,125.83899688720703,-96.0,95.0,-2759.0,-4.0,-9.0
1723940847.6042187,125.84400177001953,-101.0,98.0,-2760.0,10.0,5.0
1723940847.6140223,125.85399627685547,-92.0,97.0,-2743.0,6.0,-5.0
1723940847.6193938,125.85900115966797,-95.0,98.0,-2754.0,6.0,-2.0
1723940847.631503,125.86900329589844,-92.0,98.0,-2738.0,-3.0,-4.0
1723940847.6345756,125.8740005493164,-90.0,97.0,-2748.0,8.0,2.0
1723940847.6448073,125.88400268554688,-104.0,108.0,-2737.0,7.0,-3.0
1723940847.6494787,125.88899993896484,-97.0,97.0,-2745.0,3.0,2.0
1723940847.6600354,125.89900207519531,-100.0,99.0,-2759.0,5.0,3.0
1723940847.6639268,125.90399932861328,-91.0,98.0,-2748.0,5.0,-11.0
1723940847.6742074,125.91400146484375,-95.0,89.0,-2747.0,-4.0,3.0
1723940847.679195,125.91899871826172,-99.0,105.0,-2762.0,5.0,1.0
1723940847.6896646,125.92900085449219,-96.0,107.0,-2758.0,4.0,-1.0
1723940847.6945245,125.93399810791016,-93.0,104.0,-2759.0,13.0,1.0
1723940847.704537,125.94400024414062,-95.0,101.0,-2731.0,4.0,-7.0
1723940847.7099314,125.9489974975586,-94.0,103.0,-2762.0,8.0,-2.0
1723940847.7195823,125.95899963378906,-106.0,113.0,-2747.0,10.0,-4.0
1723940847.7245905,125.96399688720703,-101.0,98.0,-2749.0,12.0,-9.0
1723940847.7344968,125.9739990234375,-93.0,96.0,-2744.0,1.0,-12.0
1723940847.7404666,125.97899627685547,-86.0,93.0,-2754.0,3.0,1.0
1723940847.7494009,125.98899841308594,-107.0,88.0,-2748.0,11.0,-10.0
1723940847.753955,125.99400329589844,-100.0,99.0,-2755.0,13.0,1.0
1723940847.7644856,126.00399780273438,-94.0,98.0,-2739.0,2.0,-7.0
1723940847.7695057,126.00900268554688,-89.0,90.0,-2762.0,9.0,-6.0
1723940847.7794588,126.01899719238281,-95.0,101.0,-2738.0,5.0,-3.0
1723940847.7847257,126.02400207519531,-100.0,103.0,-2757.0,11.0,-1.0
1723940847.795011,126.03399658203125,-111.0,95.0,-2742.0,0.0,-4.0
1723940847.7990766,126.03900146484375,-95.0,93.0,-2767.0,4.0,-4.0
1723940847.8102312,126.04900360107422,-91.0,88.0,-2738.0,10.0,-10.0
1723940847.8140948,126.05400085449219,-106.0,90.0,-2757.0,13.0,-5.0
1723940847.8245394,126.06400299072266,-96.0,92.0,-2740.0,5.0,-2.0
1723940847.8294387,126.06900024414062,-106.0,82.0,-2760.0,7.0,-8.0
1723940847.839537,126.0790023803711,-89.0,95.0,-2737.0,-2.0,4.0
1723940847.8444693,126.08399963378906,-90.0,105.0,-2736.0,12.0,2.0
1723940847.8545928,126.09400177001953,-100.0,97.0,-2746.0,3.0,-7.0
1723940847.8606977,126.0989990234375,-102.0,91.0,-2738.0,2.0,1.0
1723940847.869474,126.10900115966797,-102.0,99.0,-2748.0,1.0,-1.0
1723940847.87455,126.11399841308594,-105.0,96.0,-2742.0,5.0,2.0
1723940847.8843627,126.1240005493164,-86.0,96.0,-2739.0,3.0,-2.0
1723940847.8925438,126.12899780273438,-109.0,101.0,-2747.0,4.0,-3.0
1723940847.8995426,126.13899993896484,-99.0,93.0,-2740.0,-2.0,1.0
1723940847.9037013,126.14399719238281,-105.0,95.0,-2749.0,4.0,2.0
1723940847.9139962,126.15399932861328,-103.0,94.0,-2759.0,9.0,-5.0
1723940847.919406,126.15899658203125,-102.0,105.0,-2747.0,8.0,0.0
1723940847.93041,126.16899871826172,-96.0,106.0,-2738.0,2.0,-12.0
1723940847.9344814,126.17400360107422,-102.0,106.0,-2746.0,8.0,-6.0
1723940847.9445426,126.18399810791016,-99.0,93.0,-2752.0,3.0,-2.0
1723940847.9494214,126.18900299072266,-89.0,94.0,-2745.0,11.0,-7.0
1723940847.9599574,126.1989974975586,-105.0,98.0,-2749.0,3.0,-8.0
1723940847.9645948,126.2040023803711,-98.0,102.0,-2740.0,5.0,0.0
1723940847.9741673,126.21399688720703,-94.0,97.0,-2732.0,0.0,-8.0
1723940847.9796178,126.21900177001953,-91.0,101.0,-2745.0,5.0,4.0
1723940847.9896278,126.22899627685547,-105.0,104.0,-2740.0,0.0,-5.0
1723940847.9951057,126.23400115966797,-105.0,96.0,-2753.0,1.0,2.0
1723940848.0056572,126.24400329589844,-99.0,88.0,-2744.0,4.0,-2.0
1723940848.0097427,126.2490005493164,-91.0,92.0,-2739.0,1.0,2.0
1723940848.0191233,126.25900268554688,-94.0,110.0,-2743.0,6.0,-7.0
1723940848.0242653,126.26399993896484,-101.0,101.0,-2741.0,8.0,-5.0
1723940848.0340362,126.27400207519531,-100.0,101.0,-2745.0,0.0,-9.0
1723940848.0410683,126.27899932861328,-96.0,95.0,-2753.0,13.0,-2.0
1723940848.0493968,126.28900146484375,-94.0,96.0,-2741.0,4.0,-8.0
1723940848.0545132,126.29399871826172,-96.0,99.0,-2745.0,1.0,0.0
1723940848.0636268,126.30400085449219,-100.0,100.0,-2755.0,3.0,-7.0
1723940848.0695593,126.30899810791016,-100.0,95.0,-2749.0,6.0,-4.0
1723940848.0794904,126.31900024414062,-97.0,96.0,-2747.0,8.0,0.0
1723940848.084506,126.3239974975586,-106.0,91.0,-2745.0,12.0,0.0
1723940848.095795,126.33399963378906,-93.0,97.0,-2747.0,3.0,-1.0
1723940848.0997462,126.33899688720703,-85.0,99.0,-2745.0,8.0,-8.0
1723940848.1090662,126.3489990234375,-105.0,101.0,-2737.0,8.0,-3.0
1723940848.1149843,126.35399627685547,-96.0,93.0,-2750.0,8.0,-6.0
1723940848.1247494,126.36399841308594,-97.0,102.0,-2729.0,2.0,-11.0
1723940848.1295137,126.36900329589844,-98.0,94.0,-2753.0,16.0,6.0
1723940848.1388605,126.37899780273438,-101.0,94.0,-2746.0,5.0,-10.0
1723940848.1444118,126.38400268554688,-102.0,101.0,-2745.0,5.0,-5.0
1723940848.15453,126.39399719238281,-90.0,95.0,-2732.0,0.0,-5.0
1723940848.1611402,126.39900207519531,-99.0,99.0,-2750.0,2.0,-4.0
1723940848.1692457,126.40899658203125,-97.0,98.0,-2745.0,8.0,-9.0
1723940848.1743364,126.41400146484375,-93.0,97.0,-2751.0,2.0,-7.0
1723940848.1862226,126.42400360107422,-109.0,105.0,-2736.0,6.0,3.0
1723940848.189473,126.42900085449219,-96.0,98.0,-2750.0,9.0,-6.0
1723940848.1995065,126.43900299072266,-106.0,90.0,-2746.0,6.0,-3.0
1723940848.2045038,126.44400024414062,-97.0,95.0,-2737.0,6.0,6.0
1723940848.2140195,126.4540023803711,-90.0,93.0,-2740.0,6.0,-6.0
1723940848.2209904,126.45899963378906,-104.0,98.0,-2752.0,5.0,-5.0
1723940848.229619,126.46900177001953,-93.0,97.0,-2735.0,6.0,-1.0
1723940848.2340903,126.4739990234375,-93.0,97.0,-2746.0,4.0,-8.0
1723940848.2451653,126.48400115966797,-106.0,91.0,-2729.0,4.0,-1.0
1723940848.2490914,126.48899841308594,-104.0,93.0,-2750.0,6.0,4.0
1723940848.2590644,126.4990005493164,-103.0,97.0,-2744.0,5.0,-3.0
1723940848.2641046,126.50399780273438,-98.0,94.0,-2747.0,7.0,-1.0
1723940848.2745583,126.51399993896484,-96.0,108.0,-2733.0,1.0,1.0
1723940848.2795546,126.51899719238281,-104.0,104.0,-2749.0,-2.0,-2.0
1723940848.289899,126.52899932861328,-97.0,100.0,-2738.0,7.0,0.0
1723940848.2940636,126.53399658203125,-103.0,107.0,-2756.0,-1.0,-16.0
1723940848.3047981,126.54399871826172,-96.0,92.0,-2737.0,8.0,0.0
1723940848.3095849,126.54900360107422,-96.0,94.0,-2742.0,4.0,0.0
1723940848.3195524,126.55899810791016,-98.0,96.0,-2746.0,-5.0,0.0
1723940848.3248649,126.56400299072266,-99.0,96.0,-2764.0,4.0,-9.0
1723940848.3339922,126.5739974975586,-99.0,100.0,-2733.0,9.0,6.0
1723940848.339402,126.5790023803711,-93.0,102.0,-2760.0,3.0,-7.0
1723940848.3494105,126.58899688720703,-104.0,90.0,-2733.0,11.0,1.0
1723940848.3545144,126.59400177001953,-100.0,95.0,-2746.0,5.0,0.0
1723940848.3668134,126.60399627685547,-96.0,89.0,-2743.0,6.0,-2.0
1723940848.3694386,126.60900115966797,-107.0,100.0,-2745.0,12.0,-8.0
1723940848.3794358,126.61900329589844,-103.0,94.0,-2749.0,1.0,-10.0
1723940848.3837707,126.6240005493164,-94.0,98.0,-2752.0,8.0,-8.0
1723940848.393779,126.63400268554688,-96.0,104.0,-2737.0,5.0,-4.0
1723940848.3993256,126.63899993896484,-99.0,96.0,-2754.0,11.0,-7.0
1723940848.40885,126.64900207519531,-102.0,96.0,-2734.0,4.0,4.0
1723940848.4138975,126.65399932861328,-99.0,95.0,-2752.0,4.0,-9.0
1723940848.4245074,126.66400146484375,-99.0,93.0,-2740.0,1.0,1.0
1723940848.4296577,126.66899871826172,-98.0,96.0,-2743.0,7.0,-10.0
1723940848.4397678,126.67900085449219,-92.0,100.0,-2742.0,4.0,-4.0
1723940848.4444594,126.68399810791016,-99.0,96.0,-2747.0,7.0,-4.0
1723940848.4548776,126.69400024414062,-94.0,96.0,-2737.0,5.0,2.0
1723940848.4594123,126.6989974975586,-91.0,103.0,-2749.0,-1.0,-6.0
1723940848.4714336,126.70899963378906,-105.0,85.0,-2747.0,8.0,-12.0
1723940848.474557,126.71399688720703,-95.0,94.0,-2753.0,9.0,-4.0
1723940848.4846444,126.7239990234375,-103.0,102.0,-2750.0,1.0,-2.0
1723940848.489675,126.72899627685547,-96.0,100.0,-2751.0,4.0,-2.0
1723940848.4994187,126.73899841308594,-111.0,93.0,-2739.0,5.0,-5.0
1723940848.5057538,126.74400329589844,-105.0,93.0,-2759.0,6.0,-4.0
1723940848.514731,126.75399780273438,-105.0,108.0,-2741.0,8.0,-12.0
1723940848.5186605,126.75900268554688,-102.0,101.0,-2752.0,3.0,7.0
1723940848.5294955,126.76899719238281,-95.0,94.0,-2746.0,1.0,1.0
1723940848.5344703,126.77400207519531,-95.0,105.0,-2742.0,8.0,-6.0
1723940848.5446665,126.78399658203125,-89.0,89.0,-2741.0,4.0,0.0
1723940848.5502598,126.78900146484375,-102.0,96.0,-2760.0,-3.0,-7.0
1723940848.5598803,126.79900360107422,-93.0,99.0,-2732.0,-4.0,0.0
1723940848.5639632,126.80400085449219,-91.0,96.0,-2754.0,7.0,-2.0
1723940848.5745285,126.81400299072266,-109.0,90.0,-2722.0,7.0,-4.0
1723940848.57857,126.81900024414062,-99.0,93.0,-2759.0,6.0,-6.0
1723940848.5896466,126.8290023803711,-87.0,110.0,-2737.0,9.0,-18.0
1723940848.5946398,126.83399963378906,-93.0,100.0,-2756.0,2.0,2.0
1723940848.6048272,126.84400177001953,-95.0,92.0,-2737.0,12.0,-16.0
1723940848.6100004,126.8489990234375,-103.0,96.0,-2762.0,3.0,-7.0
1723940848.6191616,126.85900115966797,-90.0,108.0,-2749.0,5.0,0.0
1723940848.6241727,126.86399841308594,-90.0,105.0,-2758.0,-4.0,-2.0
1723940848.6344411,126.8740005493164,-100.0,100.0,-2740.0,1.0,-4.0
1723940848.639519,126.87899780273438,-98.0,102.0,-2755.0,-1.0,0.0
1723940848.6487224,126.88899993896484,-105.0,98.0,-2744.0,10.0,-2.0
1723940848.6549072,126.89399719238281,-100.0,101.0,-2751.0,1.0,-8.0
1723940848.6641428,126.90399932861328,-97.0,93.0,-2743.0,10.0,-6.0
1723940848.6694858,126.90899658203125,-87.0,97.0,-2753.0,3.0,-16.0
1723940848.6795914,126.91899871826172,-106.0,87.0,-2747.0,12.0,5.0
1723940848.6839726,126.92400360107422,-103.0,96.0,-2750.0,1.0,-2.0
1723940848.6940248,126.93399810791016,-94.0,104.0,-2737.0,2.0,-3.0
1723940848.6993861,126.93900299072266,-97.0,103.0,-2759.0,2.0,1.0
1723940848.71044,126.9489974975586,-89.0,106.0,-2753.0,16.0,-1.0
1723940848.7142003,126.9540023803711,-92.0,103.0,-2752.0,9.0,-11.0
1723940848.7256627,126.96399688720703,-103.0,98.0,-2742.0,0.0,1.0
1723940848.7295284,126.96900177001953,-90.0,95.0,-2758.0,-1.0,-7.0
1723940848.7398102,126.97899627685547,-103.0,103.0,-2747.0,7.0,-5.0
1723940848.7441947,126.98400115966797,-100.0,108.0,-2752.0,5.0,2.0
1723940848.75451,126.99400329589844,-98.0,97.0,-2737.0,2.0,-6.0
1723940848.7607694,126.9990005493164,-94.0,98.0,-2760.0,10.0,-5.0
1723940848.7699432,127.00900268554688,-99.0,90.0,-2742.0,4.0,-5.0
1723940848.775648,127.01399993896484,-98.0,103.0,-2756.0,8.0,-3.0
1723940848.7845407,127.02400207519531,-90.0,100.0,-2738.0,3.0,-14.0
1723940848.7903318,127.02899932861328,-96.0,96.0,-2753.0,13.0,-7.0
1723940848.7993093,127.03900146484375,-100.0,96.0,-2747.0,-1.0,-9.0
1723940848.8045135,127.04399871826172,-102.0,92.0,-2743.0,6.0,2.0
1723940848.8143232,127.05400085449219,-92.0,96.0,-2736.0,4.0,-2.0
1723940848.8195837,127.05899810791016,-98.0,101.0,-2761.0,-3.0,-8.0
1723940848.8325741,127.06900024414062,-88.0,93.0,-2740.0,12.0,-6.0
1723940848.8345838,127.0739974975586,-96.0,97.0,-2751.0,7.0,-2.0
1723940848.8445268,127.08399963378906,-105.0,89.0,-2723.0,1.0,2.0
1723940848.8493245,127.08899688720703,-96.0,99.0,-2758.0,6.0,3.0
1723940848.8602192,127.0989990234375,-94.0,91.0,-2739.0,-2.0,-7.0
1723940848.8642318,127.10399627685547,-87.0,97.0,-2752.0,7.0,-4.0
1723940848.874368,127.11399841308594,-98.0,94.0,-2743.0,7.0,-5.0
1723940848.880283,127.11900329589844,-94.0,97.0,-2753.0,10.0,-7.0
1723940848.8898337,127.12899780273438,-95.0,96.0,-2739.0,1.0,4.0
1723940848.9011867,127.13400268554688,-94.0,97.0,-2758.0,5.0,8.0
1723940848.9043245,127.14399719238281,-94.0,98.0,-2745.0,4.0,-3.0
1723940848.9095502,127.14900207519531,-106.0,97.0,-2753.0,6.0,-5.0
1723940848.920461,127.15899658203125,-97.0,92.0,-2746.0,-5.0,-3.0
1723940848.924535,127.16400146484375,-96.0,96.0,-2759.0,-5.0,-3.0
1723940848.934758,127.17400360107422,-95.0,103.0,-2737.0,2.0,-1.0
1723940848.9394467,127.17900085449219,-87.0,98.0,-2763.0,-2.0,-6.0
1723940848.9493194,127.18900299072266,-101.0,91.0,-2741.0,2.0,-2.0
1723940848.9545548,127.19400024414062,-94.0,88.0,-2750.0,11.0,-7.0
1723940848.9642472,127.2040023803711,-95.0,109.0,-2741.0,6.0,-13.0
1723940848.971643,127.20899963378906,-103.0,96.0,-2757.0,10.0,1.0
1723940848.9807343,127.21900177001953,-92.0,96.0,-2745.0,4.0,0.0
1723940848.9839509,127.2239990234375,-93.0,108.0,-2752.0,-1.0,-4.0
1723940848.9944568,127.23400115966797,-95.0,101.0,-2743.0,2.0,-5.0
1723940848.99942,127.23899841308594,-98.0,89.0,-2760.0,-1.0,7.0
1723940849.0092874,127.2490005493164,-99.0,104.0,-2741.0,8.0,-17.0
1723940849.014142,127.25399780273438,-102.0,92.0,-2749.0,7.0,6.0
1723940849.0247185,127.26399993896484,-96.0,93.0,-2737.0,0.0,-8.0
1723940849.0299942,127.26899719238281,-100.0,102.0,-2753.0,3.0,-7.0
1723940849.0392206,127.27899932861328,-101.0,99.0,-2755.0,7.0,-1.0
1723940849.044253,127.28399658203125,-100.0,94.0,-2759.0,5.0,-3.0
1723940849.0545259,127.29399871826172,-96.0,110.0,-2745.0,6.0,-3.0
1723940849.0596576,127.29900360107422,-91.0,97.0,-2756.0,-2.0,-1.0
1723940849.0695467,127.30899810791016,-102.0,101.0,-2757.0,-1.0,-1.0
1723940849.0743723,127.31400299072266,-89.0,95.0,-2761.0,9.0,2.0
1723940849.0840158,127.3239974975586,-104.0,100.0,-2747.0,1.0,-5.0
1723940849.089082,127.3290023803711,-106.0,94.0,-2752.0,4.0,-3.0
1723940849.100202,127.33899688720703,-97.0,91.0,-2747.0,10.0,3.0
1723940849.1042683,127.34400177001953,-98.0,101.0,-2756.0,1.0,-6.0
1723940849.114229,127.35399627685547,-104.0,101.0,-2750.0,6.0,-7.0
1723940849.1200995,127.35900115966797,-95.0,94.0,-2765.0,19.0,-3.0
1723940849.1298184,127.36900329589844,-88.0,95.0,-2747.0,0.0,-6.0
1723940849.1338153,127.3740005493164,-94.0,97.0,-2754.0,4.0,2.0
1723940849.1446893,127.38400268554688,-100.0,91.0,-2749.0,-1.0,-12.0
1723940849.149327,127.38899993896484,-98.0,93.0,-2760.0,0.0,-9.0
1723940849.1598058,127.39900207519531,-98.0,99.0,-2743.0,4.0,3.0
1723940849.1643019,127.40399932861328,-94.0,102.0,-2751.0,6.0,-5.0
1723940849.1742947,127.41400146484375,-95.0,98.0,-2738.0,1.0,5.0
1723940849.1794074,127.41899871826172,-93.0,93.0,-2760.0,8.0,6.0
1723940849.1897144,127.42900085449219,-100.0,94.0,-2750.0,8.0,-14.0
1723940849.1947203,127.43399810791016,-97.0,98.0,-2770.0,10.0,-11.0
1723940849.2043965,127.44400024414062,-95.0,105.0,-2737.0,10.0,-9.0
1723940849.20944,127.4489974975586,-90.0,99.0,-2754.0,7.0,-1.0
1723940849.218581,127.45899963378906,-107.0,91.0,-2752.0,-7.0,3.0
1723940849.224729,127.46399688720703,-89.0,97.0,-2757.0,11.0,-6.0
1723940849.233715,127.4739990234375,-94.0,92.0,-2742.0,2.0,-7.0
1723940849.2394633,127.47899627685547,-103.0,91.0,-2753.0,6.0,1.0
1723940849.2491882,127.48899841308594,-93.0,92.0,-2754.0,7.0,-12.0
1723940849.2545066,127.49400329589844,-104.0,92.0,-2761.0,6.0,-1.0
1723940849.2641966,127.50399780273438,-97.0,96.0,-2752.0,10.0,-5.0
1723940849.2693458,127.50900268554688,-103.0,96.0,-2759.0,5.0,-6.0
1723940849.279339,127.51899719238281,-95.0,101.0,-2749.0,-1.0,3.0
1723940849.284472,127.52400207519531,-93.0,95.0,-2760.0,5.0,4.0
1723940849.294838,127.53399658203125,-103.0,102.0,-2739.0,4.0,-12.0
1723940849.2993412,127.53900146484375,-90.0,93.0,-2761.0,1.0,-5.0
1723940849.309446,127.54900360107422,-86.0,103.0,-2755.0,9.0,-7.0
1723940849.3143535,127.55400085449219,-99.0,98.0,-2757.0,7.0,-8.0
1723940849.3250341,127.56400299072266,-96.0,95.0,-2748.0,5.0,-1.0
1723940849.3291953,127.56900024414062,-93.0,93.0,-2760.0,3.0,1.0
1723940849.3391576,127.5790023803711,-94.0,92.0,-2752.0,-2.0,1.0
1723940849.344469,127.58399963378906,-98.0,104.0,-2755.0,3.0,1.0
1723940849.354556,127.59400177001953,-99.0,92.0,-2747.0,8.0,-8.0
1723940849.3587286,127.5989990234375,-106.0,84.0,-2754.0,-1.0,-12.0
1723940849.3695982,127.60900115966797,-86.0,96.0,-2751.0,8.0,1.0
1723940849.3751407,127.61399841308594,-105.0,94.0,-2746.0,3.0,-10.0
1723940849.3835785,127.6240005493164,-102.0,96.0,-2744.0,-3.0,-7.0
1723940849.3897223,127.62899780273438,-100.0,100.0,-2758.0,6.0,-3.0
1723940849.399317,127.63899993896484,-104.0,98.0,-2745.0,13.0,-2.0
1723940849.4044697,127.64399719238281,-105.0,92.0,-2752.0,8.0,-6.0
1723940849.4144802,127.65399932861328,-97.0,105.0,-2748.0,7.0,-6.0
1723940849.419165,127.65899658203125,-92.0,104.0,-2758.0,10.0,-2.0
1723940849.429458,127.66899871826172,-99.0,101.0,-2747.0,5.0,-12.0
1723940849.434519,127.67400360107422,-93.0,94.0,-2755.0,3.0,-7.0
1723940849.4440775,127.68399810791016,-96.0,106.0,-2749.0,9.0,8.0
1723940849.450056,127.68900299072266,-86.0,101.0,-2761.0,3.0,-1.0
1723940849.4595585,127.6989974975586,-96.0,97.0,-2751.0,-6.0,-8.0
1723940849.4643672,127.7040023803711,-98.0,98.0,-2748.0,8.0,3.0
1723940849.4744408,127.71399688720703,-96.0,98.0,-2749.0,-3.0,-3.0
1723940849.4797783,127.71900177001953,-96.0,102.0,-2754.0,4.0,-5.0
1723940849.4897914,127.72899627685547,-94.0,93.0,-2753.0,2.0,-6.0
1723940849.4937816,127.73400115966797,-97.0,89.0,-2760.0,6.0,6.0
1723940849.5045226,127.74400329589844,-89.0,102.0,-2740.0,1.0,6.0
1723940849.5093474,127.7490005493164,-94.0,95.0,-2757.0,8.0,0.0
1723940849.5195916,127.75900268554688,-103.0,98.0,-2753.0,6.0,-7.0
1723940849.5243318,127.76399993896484,-101.0,99.0,-2750.0,4.0,-8.0
1723940849.534636,127.77400207519531,-106.0,98.0,-2745.0,2.0,-4.0
1723940849.5396295,127.77899932861328,-101.0,92.0,-2749.0,2.0,-8.0
1723940849.549915,127.78900146484375,-99.0,93.0,-2749.0,2.0,1.0
1723940849.5540948,127.79399871826172,-100.0,92.0,-2758.0,-1.0,-4.0
1723940849.564465,127.80400085449219,-103.0,99.0,-2741.0,-1.0,-8.0
1723940849.5707495,127.80899810791016,-90.0,89.0,-2751.0,8.0,1.0
1723940849.5799434,127.81900024414062,-96.0,96.0,-2747.0,3.0,-6.0
1723940849.5840135,127.8239974975586,-90.0,96.0,-2750.0,7.0,-11.0
1723940849.5942194,127.83399963378906,-94.0,107.0,-2748.0,7.0,-20.0
1723940849.5992882,127.83899688720703,-102.0,106.0,-2748.0,3.0,-13.0
1723940849.6094816,127.8489990234375,-93.0,97.0,-2759.0,7.0,-4.0
1723940849.6139855,127.85399627685547,-90.0,98.0,-2740.0,-1.0,-7.0
1723940849.6244013,127.86399841308594,-94.0,91.0,-2750.0,3.0,2.0
1723940849.629405,127.86900329589844,-99.0,100.0,-2757.0,4.0,3.0
1723940849.6395388,127.87899780273438,-96.0,92.0,-2756.0,2.0,-10.0
1723940849.6445453,127.88400268554688,-92.0,94.0,-2745.0,0.0,4.0
1723940849.6546228,127.89399719238281,-93.0,93.0,-2755.0,-1.0,-8.0
1723940849.6598897,127.89900207519531,-101.0,101.0,-2749.0,7.0,-10.0
1723940849.6694565,127.90899658203125,-99.0,105.0,-2750.0,8.0,2.0
1723940849.6744475,127.91400146484375,-100.0,108.0,-2753.0,1.0,0.0
1723940849.6844554,127.92400360107422,-102.0,98.0,-2750.0,4.0,-6.0
1723940849.691204,127.92900085449219,-95.0,96.0,-2752.0,10.0,-5.0
1723940849.6993577,127.93900299072266,-97.0,109.0,-2759.0,5.0,-10.0
1723940849.7044647,127.94400024414062,-102.0,93.0,-2761.0,4.0,-3.0
1723940849.714784,127.9540023803711,-103.0,91.0,-2749.0,-3.0,-5.0
1723940849.7189493,127.95899963378906,-110.0,93.0,-2754.0,5.0,-4.0
1723940849.7305472,127.96900177001953,-92.0,97.0,-2761.0,3.0,7.0
1723940849.7347262,127.9739990234375,-103.0,97.0,-2755.0,1.0,0.0
1723940849.7438014,127.98400115966797,-90.0,101.0,-2746.0,3.0,-10.0
1723940849.7493684,127.98899841308594,-99.0,91.0,-2753.0,0.0,-1.0
1723940849.7593825,127.9990005493164,-93.0,98.0,-2746.0,9.0,0.0
1723940849.7647152,128.00399780273438,-97.0,101.0,-2750.0,6.0,-4.0
1723940849.774587,128.01400756835938,-93.0,98.0,-2756.0,6.0,-2.0
1723940849.7814891,128.0189971923828,-96.0,103.0,-2750.0,8.0,-4.0
1723940849.7894173,128.0290069580078,-100.0,102.0,-2752.0,3.0,-3.0
1723940849.7944932,128.03399658203125,-93.0,103.0,-2753.0,7.0,-3.0
1723940849.804474,128.04400634765625,-98.0,96.0,-2747.0,3.0,-1.0
1723940849.8093572,128.0489959716797,-91.0,96.0,-2744.0,5.0,3.0
1723940849.819424,128.0590057373047,-95.0,92.0,-2750.0,9.0,-4.0
1723940849.8244936,128.06399536132812,-94.0,96.0,-2749.0,8.0,-12.0
1723940849.8344998,128.07400512695312,-98.0,97.0,-2759.0,-1.0,2.0
1723940849.8391383,128.07899475097656,-101.0,96.0,-2747.0,12.0,0.0
1723940849.849416,128.08900451660156,-96.0,103.0,-2763.0,7.0,-3.0
1723940849.854464,128.093994140625,-99.0,102.0,-2752.0,6.0,-1.0
1723940849.864087,128.10400390625,-93.0,95.0,-2763.0,4.0,-6.0
1723940849.8692503,128.10899353027344,-98.0,105.0,-2755.0,7.0,0.0
1723940849.8792317,128.11900329589844,-101.0,90.0,-2743.0,10.0,-5.0
1723940849.8845353,128.12399291992188,-103.0,94.0,-2748.0,3.0,-2.0
1723940849.8944638,128.13400268554688,-102.0,92.0,-2752.0,7.0,2.0
1723940849.8994012,128.13900756835938,-98.0,95.0,-2747.0,9.0,-12.0
1723940849.909423,128.1490020751953,-97.0,96.0,-2756.0,0.0,-5.0
1723940849.91455,128.1540069580078,-102.0,91.0,-2752.0,7.0,-6.0
1723940849.924911,128.16400146484375,-99.0,97.0,-2748.0,6.0,-12.0
1723940849.929306,128.16900634765625,-92.0,96.0,-2751.0,7.0,5.0
1723940849.9396842,128.1790008544922,-102.0,96.0,-2759.0,1.0,-12.0
1723940849.9455009,128.1840057373047,-91.0,100.0,-2750.0,3.0,-7.0
1723940849.9543493,128.19400024414062,-95.0,98.0,-2727.0,10.0,5.0
1723940849.959531,128.19900512695312,-88.0,104.0,-2756.0,10.0,-4.0
1723940849.9696684,128.20899963378906,-96.0,96.0,-2743.0,2.0,-1.0
1723940849.9744759,128.21400451660156,-93.0,100.0,-2765.0,6.0,0.0
1723940849.9861639,128.2239990234375,-89.0,102.0,-2735.0,5.0,-7.0
1723940849.9891405,128.22900390625,-95.0,99.0,-2749.0,6.0,-4.0
1723940849.9998467,128.23899841308594,-95.0,94.0,-2742.0,8.0,-2.0
1723940850.0044289,128.24400329589844,-104.0,91.0,-2754.0,2.0,-4.0
1723940850.0142012,128.25399780273438,-100.0,95.0,-2737.0,7.0,-3.0
1723940850.0193791,128.25900268554688,-93.0,93.0,-2754.0,3.0,5.0
1723940850.0298789,128.2689971923828,-111.0,82.0,-2739.0,12.0,-11.0
1723940850.034019,128.2740020751953,-100.0,88.0,-2747.0,-3.0,1.0
1723940850.0450144,128.28399658203125,-101.0,79.0,-2753.0,-2.0,-5.0
1723940850.0491438,128.28900146484375,-101.0,79.0,-2753.0,6.0,-5.0
1723940850.0595605,128.2989959716797,-102.0,98.0,-2746.0,4.0,-2.0
1723940850.0641308,128.3040008544922,-94.0,102.0,-2750.0,0.0,-4.0
1723940850.074255,128.31399536132812,-102.0,104.0,-2747.0,3.0,-8.0
1723940850.079312,128.31900024414062,-101.0,106.0,-2763.0,-1.0,-3.0
1723940850.0895708,128.32899475097656,-103.0,100.0,-2736.0,9.0,-4.0
1723940850.0945218,128.33399963378906,-98.0,102.0,-2751.0,7.0,0.0
1723940850.104177,128.343994140625,-110.0,92.0,-2756.0,4.0,-2.0
1723940850.1094697,128.3489990234375,-105.0,93.0,-2760.0,1.0,-3.0
1723940850.119536,128.35899353027344,-106.0,90.0,-2741.0,4.0,11.0
1723940850.1236148,128.36399841308594,-100.0,90.0,-2760.0,5.0,-2.0
1723940850.133974,128.37399291992188,-86.0,98.0,-2748.0,2.0,-6.0
1723940850.1398423,128.37899780273438,-91.0,106.0,-2751.0,0.0,-5.0
1723940850.1501691,128.38900756835938,-96.0,95.0,-2725.0,5.0,-7.0
1723940850.1546886,128.3939971923828,-100.0,104.0,-2763.0,0.0,-5.0
1723940850.1643608,128.4040069580078,-94.0,89.0,-2734.0,2.0,1.0
1723940850.1694324,128.40899658203125,-91.0,97.0,-2753.0,-1.0,-5.0
1723940850.179862,128.41900634765625,-90.0,93.0,-2744.0,2.0,-4.0
1723940850.1840117,128.4239959716797,-100.0,96.0,-2761.0,4.0,4.0
1723940850.1943512,128.4340057373047,-103.0,94.0,-2736.0,7.0,0.0
1723940850.199338,128.43899536132812,-105.0,105.0,-2753.0,6.0,-4.0
1723940850.2095292,128.44900512695312,-101.0,86.0,-2739.0,5.0,-8.0
1723940850.213977,128.45399475097656,-104.0,98.0,-2756.0,5.0,-6.0
1723940850.2243724,128.46400451660156,-92.0,91.0,-2744.0,2.0,-1.0
1723940850.2293844,128.468994140625,-93.0,96.0,-2753.0,2.0,-2.0
1723940850.2394419,128.47900390625,-89.0,97.0,-2741.0,10.0,-6.0
1723940850.2444835,128.48399353027344,-95.0,101.0,-2763.0,7.0,-9.0
1723940850.2544844,128.49400329589844,-101.0,102.0,-2736.0,-1.0,-6.0
1723940850.2594712,128.49899291992188,-95.0,95.0,-2758.0,3.0,5.0
1723940850.2698839,128.50900268554688,-105.0,98.0,-2755.0,-1.0,0.0
1723940850.2747765,128.51400756835938,-104.0,92.0,-2766.0,6.0,-6.0
1723940850.2848425,128.5240020751953,-106.0,98.0,-2743.0,4.0,-3.0
1723940850.2906537,128.5290069580078,-98.0,99.0,-2754.0,8.0,-1.0
1723940850.2994478,128.53900146484375,-101.0,88.0,-2750.0,13.0,5.0
1723940850.3037086,128.54400634765625,-102.0,98.0,-2768.0,1.0,-5.0
1723940850.3139021,128.5540008544922,-108.0,90.0,-2737.0,-2.0,-1.0
1723940850.3188682,128.5590057373047,-96.0,94.0,-2756.0,2.0,1.0
1723940850.3294864,128.56900024414062,-100.0,110.0,-2758.0,4.0,-6.0
1723940850.3344734,128.57400512695312,-101.0,111.0,-2756.0,1.0,-12.0
1723940850.3445394,128.58399963378906,-84.0,102.0,-2746.0,1.0,-2.0
1723940850.3496392,128.58900451660156,-95.0,107.0,-2755.0,6.0,-5.0
1723940850.359534,128.5989990234375,-96.0,99.0,-2735.0,3.0,0.0
1723940850.3636153,128.60400390625,-90.0,103.0,-2763.0,0.0,-2.0
1723940850.374189,128.61399841308594,-90.0,99.0,-2730.0,3.0,3.0
1723940850.3791773,128.61900329589844,-111.0,95.0,-2761.0,12.0,-2.0
1723940850.3893948,128.62899780273438,-97.0,92.0,-2748.0,4.0,-2.0
1723940850.3966331,128.63400268554688,-92.0,97.0,-2762.0,8.0,-6.0
1723940850.4045734,128.6439971923828,-97.0,96.0,-2739.0,4.0,-3.0
1723940850.4089417,128.6490020751953,-99.0,89.0,-2760.0,1.0,-9.0
1723940850.4200478,128.65899658203125,-103.0,99.0,-2738.0,8.0,0.0
1723940850.4243927,128.66400146484375,-102.0,98.0,-2757.0,2.0,-6.0
1723940850.4362333,128.6739959716797,-100.0,92.0,-2732.0,5.0,0.0
1723940850.439264,128.6790008544922,-101.0,92.0,-2761.0,1.0,-5.0
1723940850.4493375,128.68899536132812,-102.0,108.0,-2732.0,7.0,-3.0
1723940850.4545975,128.69400024414062,-109.0,111.0,-2739.0,7.0,-3.0
1723940850.4641008,128.70399475097656,-96.0,91.0,-2739.0,6.0,-12.0
1723940850.4691477,128.70899963378906,-82.0,95.0,-2757.0,11.0,-11.0
1723940850.479683,128.718994140625,-96.0,104.0,-2742.0,10.0,2.0
1723940850.4843562,128.7239990234375,-87.0,105.0,-2747.0,3.0,-2.0
1723940850.4943178,128.73399353027344,-101.0,98.0,-2736.0,8.0,-4.0
1723940850.4992454,128.73899841308594,-85.0,96.0,-2756.0,1.0,-2.0
1723940850.5094252,128.74899291992188,-101.0,96.0,-2744.0,5.0,-5.0
1723940850.5141828,128.75399780273438,-97.0,103.0,-2759.0,0.0,-7.0
1723940850.5243175,128.76400756835938,-103.0,94.0,-2742.0,1.0,-6.0
1723940850.5293028,128.7689971923828,-94.0,96.0,-2754.0,8.0,0.0
1723940850.539556,128.7790069580078,-94.0,93.0,-2743.0,8.0,-5.0
1723940850.5444887,128.78399658203125,-95.0,96.0,-2747.0,4.0,-12.0
1723940850.5551763,128.79400634765625,-102.0,101.0,-2740.0,3.0,-1.0
1723940850.5595472,128.7989959716797,-105.0,90.0,-2756.0,11.0,-6.0
1723940850.5694463,128.8090057373047,-95.0,94.0,-2742.0,8.0,1.0
1723940850.574248,128.81399536132812,-94.0,93.0,-2736.0,8.0,-4.0
1723940850.5847514,128.82400512695312,-103.0,94.0,-2743.0,7.0,6.0
1723940850.5928533,128.82899475097656,-98.0,96.0,-2755.0,-3.0,-1.0
1723940850.600935,128.83900451660156,-95.0,95.0,-2746.0,6.0,1.0
1723940850.6040132,128.843994140625,-93.0,91.0,-2757.0,5.0,-4.0
1723940850.6140628,128.85400390625,-95.0,110.0,-2745.0,8.0,0.0
1723940850.6193693,128.85899353027344,-96.0,101.0,-2760.0,4.0,-10.0
1723940850.6294596,128.86900329589844,-95.0,89.0,-2747.0,5.0,-6.0
1723940850.634471,128.87399291992188,-97.0,87.0,-2759.0,0.0,-1.0
1723940850.644679,128.88400268554688,-99.0,90.0,-2745.0,6.0,1.0
1723940850.6504052,128.88900756835938,-100.0,94.0,-2762.0,9.0,-15.0
1723940850.6595786,128.8990020751953,-97.0,91.0,-2752.0,5.0,-4.0
1723940850.6647499,128.9040069580078,-93.0,98.0,-2744.0,4.0,-8.0
1723940850.6750984,128.91400146484375,-92.0,91.0,-2743.0,-2.0,3.0
1723940850.679271,128.91900634765625,-84.0,88.0,-2754.0,7.0,-2.0
1723940850.689418,128.9290008544922,-91.0,93.0,-2753.0,6.0,2.0
1723940850.6944284,128.9340057373047,-98.0,104.0,-2757.0,0.0,2.0
1723940850.7045183,128.94400024414062,-97.0,98.0,-2752.0,1.0,0.0
1723940850.7094593,128.94900512695312,-95.0,92.0,-2765.0,9.0,1.0
1723940850.720642,128.95899963378906,-96.0,98.0,-2740.0,9.0,0.0
1723940850.7241166,128.96400451660156,-91.0,96.0,-2748.0,2.0,-7.0
1723940850.7346857,128.9739990234375,-99.0,99.0,-2740.0,1.0,-2.0
1723940850.7399824,128.97900390625,-91.0,98.0,-2755.0,-4.0,-4.0
1723940850.7494009,128.98899841308594,-90.0,98.0,-2745.0,0.0,5.0
1723940850.7545726,128.99400329589844,-100.0,96.0,-2756.0,3.0,3.0
1723940850.7640064,129.00399780273438,-99.0,106.0,-2750.0,6.0,-3.0
1723940850.7692869,129.00900268554688,-105.0,100.0,-2753.0,4.0,-9.0
1723940850.779362,129.0189971923828,-100.0,86.0,-2748.0,2.0,0.0
1723940850.7844388,129.0240020751953,-104.0,96.0,-2750.0,0.0,-3.0
1723940850.7949336,129.03399658203125,-106.0,97.0,-2744.0,2.0,-5.0
1723940850.7993815,129.03900146484375,-90.0,98.0,-2761.0,2.0,3.0
1723940850.8094766,129.0489959716797,-97.0,98.0,-2745.0,3.0,1.0
1723940850.8139777,129.0540008544922,-105.0,100.0,-2746.0,-2.0,-1.0
1723940850.8246365,129.06399536132812,-95.0,101.0,-2748.0,-2.0,-8.0
1723940850.8293083,129.06900024414062,-95.0,98.0,-2759.0,12.0,-14.0
1723940850.839475,129.07899475097656,-105.0,95.0,-2745.0,3.0,6.0
1723940850.84436,129.08399963378906,-93.0,98.0,-2761.0,2.0,-6.0
1723940850.8545554,129.093994140625,-101.0,96.0,-2757.0,17.0,-8.0
1723940850.8594618,129.0989990234375,-98.0,99.0,-2756.0,9.0,0.0
1723940850.8693254,129.10899353027344,-95.0,108.0,-2752.0,6.0,2.0
1723940850.8743196,129.11399841308594,-96.0,96.0,-2755.0,5.0,-8.0
1723940850.8844006,129.12399291992188,-106.0,96.0,-2752.0,4.0,3.0
1723940850.8895733,129.12899780273438,-103.0,97.0,-2760.0,4.0,1.0
1723940850.8993587,129.13900756835938,-91.0,102.0,-2757.0,7.0,-4.0
1723940850.9044876,129.1439971923828,-97.0,94.0,-2753.0,3.0,-10.0
1723940850.913743,129.1540069580078,-103.0,93.0,-2745.0,3.0,3.0
1723940850.919343,129.15899658203125,-100.0,102.0,-2752.0,3.0,-3.0
1723940850.929808,129.16900634765625,-92.0,87.0,-2761.0,0.0,5.0
1723940850.9342597,129.1739959716797,-98.0,84.0,-2739.0,4.0,-8.0
1723940850.9445038,129.1840057373047,-100.0,98.0,-2742.0,0.0,-5.0
1723940850.9497354,129.18899536132812,-95.0,95.0,-2755.0,6.0,-1.0
1723940850.9589238,129.19900512695312,-98.0,95.0,-2753.0,7.0,2.0
1723940850.9648843,129.20399475097656,-97.0,101.0,-2760.0,-3.0,-1.0
1723940850.974877,129.21400451660156,-88.0,98.0,-2751.0,6.0,1.0
1723940850.979544,129.218994140625,-95.0,94.0,-2754.0,-1.0,-7.0
1723940850.989647,129.22900390625,-93.0,99.0,-2758.0,7.0,-4.0
1723940850.99473,129.23399353027344,-91.0,103.0,-2760.0,3.0,-2.0
1723940851.0046804,129.24400329589844,-98.0,97.0,-2755.0,2.0,-9.0
1723940851.0107124,129.24899291992188,-98.0,89.0,-2748.0,2.0,-11.0
1723940851.019895,129.25900268554688,-97.0,97.0,-2759.0,4.0,-12.0
1723940851.0243871,129.26400756835938,-101.0,99.0,-2748.0,12.0,-10.0
1723940851.034025,129.2740020751953,-99.0,94.0,-2739.0,1.0,2.0
1723940851.0410006,129.2790069580078,-94.0,94.0,-2746.0,8.0,-2.0
1723940851.0493054,129.28900146484375,-100.0,93.0,-2770.0,14.0,-5.0
1723940851.0544739,129.29400634765625,-108.0,96.0,-2749.0,1.0,-9.0
1723940851.064942,129.3040008544922,-80.0,92.0,-2760.0,4.0,-7.0
1723940851.0690494,129.3090057373047,-97.0,96.0,-2753.0,16.0,-3.0
1723940851.0792382,129.31900024414062,-94.0,99.0,-2757.0,4.0,-15.0
1723940851.0842328,129.32400512695312,-99.0,95.0,-2754.0,1.0,-7.0
1723940851.094452,129.33399963378906,-99.0,95.0,-2756.0,7.0,0.0
1723940851.099879,129.33900451660156,-100.0,96.0,-2755.0,0.0,-15.0
1723940851.109437,129.3489990234375,-95.0,90.0,-2753.0,10.0,1.0
1723940851.1136112,129.35400390625,-93.0,95.0,-2750.0,3.0,-5.0
1723940851.1245334,129.36399841308594,-97.0,97.0,-2748.0,0.0,-7.0
1723940851.1306357,129.36900329589844,-92.0,99.0,-2743.0,5.0,-4.0
1723940851.139485,129.37899780273438,-88.0,88.0,-2752.0,3.0,-2.0
1723940851.144198,129.38400268554688,-93.0,88.0,-2747.0,6.0,-3.0
1723940851.154024,129.3939971923828,-101.0,96.0,-2751.0,0.0,-11.0
1723940851.159154,129.3990020751953,-102.0,95.0,-2755.0,8.0,-11.0
1723940851.1703513,129.40899658203125,-100.0,92.0,-2746.0,11.0,6.0
1723940851.174296,129.41400146484375,-94.0,101.0,-2745.0,2.0,-6.0
1723940851.1843138,129.4239959716797,-108.0,100.0,-2752.0,0.0,-3.0
1723940851.1894982,129.4290008544922,-93.0,103.0,-2760.0,2.0,-15.0
1723940851.1995986,129.43899536132812,-104.0,93.0,-2760.0,10.0,-7.0
1723940851.2059166,129.44400024414062,-106.0,92.0,-2740.0,-1.0,-10.0
1723940851.2148864,129.45399475097656,-101.0,93.0,-2759.0,11.0,4.0
1723940851.2193797,129.45899963378906,-105.0,87.0,-2758.0,-2.0,-9.0
1723940851.2294154,129.468994140625,-103.0,103.0,-2749.0,-2.0,-7.0
1723940851.2337797,129.4739990234375,-88.0,90.0,-2748.0,8.0,-1.0
1723940851.2458215,129.48399353027344,-113.0,103.0,-2751.0,6.0,-3.0
1723940851.2493808,129.48899841308594,-108.0,96.0,-2735.0,2.0,-10.0
1723940851.2591553,129.49899291992188,-99.0,86.0,-2756.0,5.0,-7.0
1723940851.2641485,129.50399780273438,-92.0,84.0,-2748.0,-2.0,-6.0
1723940851.2747252,129.51400756835938,-102.0,99.0,-2748.0,-4.0,0.0
1723940851.278642,129.5189971923828,-99.0,85.0,-2754.0,2.0,-8.0
1723940851.288763,129.5290069580078,-100.0,98.0,-2758.0,16.0,-1.0
1723940851.293778,129.53399658203125,-97.0,91.0,-2740.0,14.0,1.0
1723940851.3044033,129.54400634765625,-97.0,99.0,-2754.0,9.0,-11.0
1723940851.309488,129.5489959716797,-97.0,92.0,-2754.0,7.0,-11.0
1723940851.3194544,129.5590057373047,-101.0,94.0,-2761.0,5.0,-5.0
1723940851.3245006,129.56399536132812,-90.0,95.0,-2744.0,3.0,-7.0
1723940851.3355057,129.57400512695312,-97.0,99.0,-2752.0,11.0,-5.0
1723940851.3394716,129.57899475097656,-101.0,100.0,-2742.0,2.0,6.0
1723940851.3497128,129.58900451660156,-92.0,93.0,-2764.0,10.0,-2.0
1723940851.3544273,129.593994140625,-98.0,97.0,-2739.0,9.0,-14.0
1723940851.3644874,129.60400390625,-97.0,101.0,-2767.0,2.0,-6.0
1723940851.36961,129.60899353027344,-92.0,96.0,-2749.0,-1.0,-12.0
1723940851.379614,129.61900329589844,-87.0,89.0,-2757.0,5.0,-5.0
1723940851.3845572,129.62399291992188,-106.0,90.0,-2751.0,-1.0,-7.0
1723940851.3939798,129.63400268554688,-97.0,97.0,-2755.0,0.0,1.0
1723940851.4000938,129.63900756835938,-99.0,90.0,-2761.0,6.0,-6.0
1723940851.4093947,129.6490020751953,-98.0,93.0,-2766.0,2.0,-2.0
1723940851.4141552,129.6540069580078,-97.0,91.0,-2742.0,1.0,-9.0
1723940851.4240732,129.66400146484375,-99.0,98.0,-2748.0,8.0,-3.0
1723940851.429121,129.66900634765625,-109.0,92.0,-2747.0,0.0,-4.0
1723940851.4391305,129.6790008544922,-98.0,92.0,-2756.0,6.0,-6.0
1723940851.4444432,129.6840057373047,-104.0,94.0,-2752.0,4.0,-4.0
1723940851.4547067,129.69400024414062,-89.0,96.0,-2753.0,6.0,-3.0
1723940851.4597197,129.69900512695312,-97.0,91.0,-2753.0,8.0,-4.0
1723940851.4693635,129.70899963378906,-84.0,96.0,-2764.0,13.0,-7.0
1723940851.4752223,129.71400451660156,-93.0,98.0,-2751.0,1.0,-4.0
1723940851.4836972,129.7239990234375,-95.0,91.0,-2752.0,4.0,-10.0
1723940851.489113,129.72900390625,-90.0,103.0,-2739.0,-2.0,-3.0
1723940851.4993503,129.73899841308594,-93.0,101.0,-2763.0,-1.0,-8.0
1723940851.5043538,129.74400329589844,-99.0,92.0,-2736.0,9.0,-7.0
1723940851.51463,129.75399780273438,-101.0,97.0,-2752.0,6.0,-3.0
1723940851.519628,129.75900268554688,-102.0,93.0,-2751.0,5.0,-7.0
1723940851.5296323,129.7689971923828,-104.0,98.0,-2750.0,7.0,-6.0
1723940851.5343769,129.7740020751953,-105.0,91.0,-2744.0,8.0,-13.0
1723940851.5448554,129.78399658203125,-94.0,94.0,-2752.0,11.0,-1.0
1723940851.549499,129.78900146484375,-105.0,95.0,-2747.0,1.0,-11.0
1723940851.5593793,129.7989959716797,-91.0,89.0,-2754.0,11.0,-7.0
1723940851.5640068,129.8040008544922,-100.0,97.0,-2755.0,5.0,5.0
1723940851.5742464,129.81399536132812,-80.0,100.0,-2751.0,-1.0,-9.0
1723940851.5801659,129.81900024414062,-97.0,103.0,-2743.0,10.0,-3.0
1723940851.589586,129.82899475097656,-95.0,103.0,-2757.0,1.0,-7.0
1723940851.5948608,129.83399963378906,-97.0,98.0,-2739.0,2.0,-12.0
1723940851.6049325,129.843994140625,-105.0,101.0,-2757.0,2.0,0.0
1723940851.608953,129.8489990234375,-101.0,88.0,-2748.0,6.0,-3.0
1723940851.61938,129.85899353027344,-96.0,104.0,-2755.0,3.0,-6.0
1723940851.6244657,129.86399841308594,-100.0,107.0,-2738.0,8.0,-5.0
1723940851.633959,129.87399291992188,-105.0,89.0,-2757.0,6.0,-7.0
1723940851.640959,129.87899780273438,-102.0,104.0,-2745.0,4.0,-1.0
1723940851.649488,129.88900756835938,-99.0,99.0,-2754.0,9.0,-1.0
1723940851.6556978,129.8939971923828,-96.0,94.0,-2749.0,-2.0,-6.0
1723940851.6642475,129.9040069580078,-90.0,98.0,-2761.0,7.0,3.0
1723940851.6694264,129.90899658203125,-95.0,86.0,-2737.0,5.0,6.0
1723940851.6803813,129.91900634765625,-101.0,91.0,-2759.0,-1.0,-5.0
1723940851.6843877,129.9239959716797,-105.0,87.0,-2754.0,1.0,-8.0
1723940851.6948009,129.9340057373047,-94.0,97.0,-2751.0,3.0,-6.0
1723940851.6998446,129.93899536132812,-102.0,97.0,-2736.0,3.0,-9.0
1723940851.7094262,129.94900512695312,-96.0,99.0,-2760.0,-1.0,-10.0
1723940851.713938,129.95399475097656,-106.0,107.0,-2740.0,4.0,-3.0
1723940851.7246294,129.96400451660156,-102.0,98.0,-2753.0,1.0,-1.0
1723940851.7296302,129.968994140625,-110.0,105.0,-2743.0,5.0,-6.0
1723940851.739472,129.97900390625,-93.0,96.0,-2772.0,0.0,-6.0
1723940851.7451441,129.98399353027344,-107.0,97.0,-2745.0,3.0,-8.0
1723940851.7544415,129.99400329589844,-96.0,105.0,-2752.0,4.0,-3.0
1723940851.759497,129.99899291992188,-97.0,92.0,-2752.0,6.0,-8.0
1723940851.7695467,130.00900268554688,-97.0,99.0,-2765.0,5.0,0.0
1723940851.774414,130.01400756835938,-102.0,95.0,-2745.0,3.0,-10.0
1723940851.7846825,130.0240020751953,-86.0,104.0,-2757.0,-2.0,2.0
1723940851.7890582,130.0290069580078,-101.0,106.0,-2738.0,-2.0,2.0
1723940851.7992008,130.03900146484375,-105.0,89.0,-2762.0,-1.0,-8.0
1723940851.8042018,130.04400634765625,-108.0,98.0,-2748.0,2.0,-9.0
1723940851.8140044,130.0540008544922,-94.0,102.0,-2757.0,4.0,9.0
1723940851.8194876,130.0590057373047,-93.0,103.0,-2754.0,3.0,-5.0
1723940851.8299522,130.06900024414062,-85.0,98.0,-2757.0,6.0,-6.0
1723940851.8348503,130.07400512695312,-103.0,101.0,-2739.0,6.0,-11.0
1723940851.8444328,130.08399963378906,-96.0,96.0,-2762.0,0.0,-8.0
1723940851.849199,130.08900451660156,-104.0,99.0,-2742.0,1.0,-6.0
1723940851.859515,130.0989990234375,-102.0,91.0,-2759.0,6.0,3.0
1723940851.8639734,130.10400390625,-104.0,94.0,-2731.0,2.0,-4.0
1723940851.8744557,130.11399841308594,-90.0,98.0,-2763.0,-1.0,5.0
1723940851.8791142,130.11900329589844,-98.0,96.0,-2749.0,5.0,5.0
1723940851.8897083,130.12899780273438,-98.0,100.0,-2759.0,2.0,-15.0
1723940851.8944004,130.13400268554688,-99.0,110.0,-2743.0,-4.0,2.0
1723940851.9059098,130.1439971923828,-102.0,95.0,-2755.0,5.0,-7.0
1723940851.9094348,130.1490020751953,-95.0,103.0,-2738.0,11.0,-8.0
1723940851.9193072,130.15899658203125,-103.0,92.0,-2757.0,9.0,-14.0
1723940851.9243784,130.16400146484375,-93.0,93.0,-2744.0,9.0,-14.0
1723940851.9347878,130.1739959716797,-91.0,87.0,-2758.0,3.0,4.0
1723940851.9397383,130.1790008544922,-104.0,94.0,-2758.0,7.0,-3.0
1723940851.9498043,130.18899536132812,-98.0,90.0,-2747.0,8.0,-4.0
1723940851.9538615,130.19400024414062,-101.0,97.0,-2738.0,6.0,-5.0
1723940851.9649854,130.20399475097656,-98.0,100.0,-2755.0,5.0,0.0
1723940851.9694698,130.20899963378906,-97.0,103.0,-2747.0,0.0,-3.0
1723940851.9793122,130.218994140625,-91.0,102.0,-2766.0,10.0,4.0
1723940851.9853609,130.2239990234375,-95.0,104.0,-2741.0,7.0,3.0
1723940851.994399,130.23399353027344,-99.0,100.0,-2763.0,5.0,-1.0
1723940852.0000381,130.23899841308594,-96.0,100.0,-2748.0,2.0,1.0
1723940852.0094495,130.24899291992188,-95.0,100.0,-2748.0,10.0,-4.0
1723940852.0144858,130.25399780273438,-101.0,101.0,-2749.0,6.0,-6.0
1723940852.0240645,130.26400756835938,-102.0,90.0,-2753.0,11.0,-7.0
1723940852.0288951,130.2689971923828,-104.0,94.0,-2746.0,5.0,-9.0
1723940852.0393019,130.2790069580078,-101.0,93.0,-2755.0,-1.0,-6.0
1723940852.0444329,130.28399658203125,-95.0,96.0,-2742.0,13.0,-14.0
1723940852.0544577,130.29400634765625,-95.0,100.0,-2752.0,6.0,-2.0
1723940852.059351,130.2989959716797,-101.0,104.0,-2739.0,4.0,-1.0
1723940852.069412,130.3090057373047,-97.0,94.0,-2754.0,3.0,-5.0
1723940852.0743103,130.31399536132812,-87.0,106.0,-2741.0,-8.0,-2.0
1723940852.0843816,130.32400512695312,-99.0,94.0,-2749.0,2.0,-8.0
1723940852.0895193,130.32899475097656,-98.0,97.0,-2752.0,6.0,-13.0
1723940852.099925,130.33900451660156,-101.0,105.0,-2749.0,6.0,-2.0
1723940852.1047976,130.343994140625,-90.0,104.0,-2759.0,8.0,-7.0
1723940852.1138895,130.35400390625,-108.0,94.0,-2743.0,8.0,-1.0
1723940852.1195133,130.35899353027344,-98.0,94.0,-2741.0,3.0,0.0
1723940852.1294515,130.36900329589844,-89.0,85.0,-2752.0,6.0,1.0
1723940852.1368499,130.37399291992188,-97.0,87.0,-2753.0,2.0,-9.0
1723940852.1444361,130.38400268554688,-102.0,94.0,-2745.0,-2.0,3.0
1723940852.1500387,130.38900756835938,-96.0,98.0,-2748.0,8.0,-3.0
1723940852.1594696,130.3990020751953,-100.0,107.0,-2747.0,-1.0,-2.0
1723940852.1641626,130.4040069580078,-96.0,94.0,-2755.0,0.0,-10.0
1723940852.1744833,130.41400146484375,-98.0,107.0,-2756.0,1.0,-6.0
1723940852.1798055,130.41900634765625,-99.0,91.0,-2750.0,10.0,-9.0
1723940852.189807,130.4290008544922,-94.0,88.0,-2757.0,8.0,0.0
1723940852.1946223,130.4340057373047,-90.0,99.0,-2756.0,5.0,-4.0
1723940852.204238,130.44400024414062,-94.0,99.0,-2756.0,8.0,-3.0
1723940852.209558,130.44900512695312,-93.0,96.0,-2749.0,-1.0,-7.0
1723940852.219332,130.45899963378906,-97.0,97.0,-2744.0,1.0,-2.0
1723940852.2243218,130.46400451660156,-97.0,96.0,-2742.0,3.0,-2.0
1723940852.2339733,130.4739990234375,-96.0,86.0,-2758.0,1.0,-9.0
1723940852.239144,130.47900390625,-91.0,92.0,-2755.0,5.0,-5.0
1723940852.2498071,130.48899841308594,-100.0,88.0,-2758.0,8.0,6.0
1723940852.2545907,130.49400329589844,-108.0,97.0,-2749.0,-7.0,-9.0
1723940852.2646227,130.50399780273438,-103.0,97.0,-2753.0,4.0,1.0
1723940852.2696993,130.50900268554688,-97.0,97.0,-2758.0,-1.0,-7.0
1723940852.2794049,130.5189971923828,-94.0,113.0,-2770.0,5.0,4.0
1723940852.2837596,130.5240020751953,-98.0,100.0,-2761.0,7.0,-8.0
1723940852.295638,130.53399658203125,-104.0,98.0,-2743.0,6.0,-11.0
1723940852.2998645,130.53900146484375,-99.0,94.0,-2749.0,7.0,-6.0
1723940852.3095508,130.5489959716797,-96.0,96.0,-2764.0,-1.0,2.0
1723940852.3141837,130.5540008544922,-100.0,94.0,-2758.0,4.0,-3.0
1723940852.3243523,130.56399536132812,-99.0,93.0,-2754.0,7.0,-4.0
1723940852.3294141,130.56900024414062,-106.0,98.0,-2748.0,2.0,-8.0
1723940852.3418105,130.57899475097656,-93.0,90.0,-2751.0,1.0,-1.0
1723940852.344641,130.58399963378906,-95.0,91.0,-2764.0,0.0,3.0
1723940852.3544927,130.593994140625,-100.0,103.0,-2747.0,2.0,-2.0
1723940852.3595529,130.5989990234375,-96.0,101.0,-2750.0,4.0,-9.0
1723940852.3729382,130.60899353027344,-88.0,95.0,-2767.0,7.0,3.0
1723940852.374136,130.61399841308594,-99.0,92.0,-2760.0,0.0,2.0
1723940852.3849497,130.62399291992188,-93.0,99.0,-2753.0,2.0,4.0
1723940852.3925006,130.62899780273438,-96.0,93.0,-2758.0,-2.0,-3.0
1723940852.3994277,130.63900756835938,-94.0,97.0,-2755.0,3.0,-16.0
1723940852.4041374,130.6439971923828,-101.0,96.0,-2743.0,5.0,4.0
1723940852.4135325,130.6540069580078,-95.0,97.0,-2765.0,5.0,-9.0
1723940852.419479,130.65899658203125,-103.0,97.0,-2765.0,11.0,-11.0
1723940852.429064,130.66900634765625,-98.0,95.0,-2753.0,5.0,-3.0
1723940852.434507,130.6739959716797,-87.0,96.0,-2753.0,4.0,-3.0
1723940852.4445345,130.6840057373047,-104.0,103.0,-2746.0,1.0,-7.0
1723940852.4493182,130.68899536132812,-98.0,104.0,-2757.0,-3.0,0.0
1723940852.459427,130.69900512695312,-103.0,94.0,-2750.0,7.0,-2.0
1723940852.464171,130.70399475097656,-98.0,99.0,-2750.0,9.0,0.0
1723940852.4743202,130.71400451660156,-92.0,95.0,-2746.0,7.0,2.0
1723940852.4792807,130.718994140625,-97.0,88.0,-2749.0,6.0,-6.0
1723940852.4892015,130.72900390625,-104.0,101.0,-2765.0,-1.0,-8.0
1723940852.4941826,130.73399353027344,-111.0,97.0,-2762.0,4.0,-9.0
1723940852.5046453,130.74400329589844,-94.0,94.0,-2757.0,4.0,-2.0
1723940852.509513,130.74899291992188,-90.0,97.0,-2756.0,3.0,0.0
1723940852.5194244,130.75900268554688,-103.0,94.0,-2763.0,2.0,-6.0
1723940852.5234995,130.76400756835938,-101.0,95.0,-2738.0,-1.0,1.0
1723940852.5342872,130.7740020751953,-102.0,107.0,-2756.0,6.0,-1.0
1723940852.539263,130.7790069580078,-95.0,98.0,-2739.0,4.0,-10.0
1723940852.5494251,130.78900146484375,-87.0,97.0,-2749.0,7.0,-4.0
1723940852.5542822,130.79400634765625,-100.0,99.0,-2753.0,6.0,-13.0
1723940852.5642216,130.8040008544922,-108.0,96.0,-2749.0,12.0,-3.0
1723940852.569518,130.8090057373047,-100.0,97.0,-2758.0,-3.0,-4.0
1723940852.5794234,130.81900024414062,-97.0,80.0,-2747.0,5.0,-6.0
1723940852.5843997,130.82400512695312,-84.0,95.0,-2753.0,2.0,-4.0
1723940852.5946233,130.83399963378906,-98.0,96.0,-2748.0,5.0,-6.0
1723940852.5998054,130.83900451660156,-101.0,93.0,-2756.0,2.0,-18.0
1723940852.6096187,130.8489990234375,-89.0,100.0,-2761.0,2.0,1.0
1723940852.6142943,130.85400390625,-102.0,92.0,-2744.0,0.0,-11.0
1723940852.6244876,130.86399841308594,-101.0,91.0,-2750.0,2.0,-5.0
1723940852.6293902,130.86900329589844,-96.0,89.0,-2751.0,3.0,-3.0
1723940852.6394799,130.87899780273438,-106.0,95.0,-2756.0,6.0,-4.0
1723940852.6444197,130.88400268554688,-103.0,96.0,-2743.0,3.0,-10.0
1723940852.6544323,130.8939971923828,-95.0,104.0,-2758.0,9.0,0.0
1723940852.659499,130.8990020751953,-95.0,100.0,-2757.0,6.0,-13.0
1723940852.6690583,130.90899658203125,-101.0,90.0,-2760.0,5.0,-8.0
1723940852.6740556,130.91400146484375,-102.0,100.0,-2746.0,2.0,-14.0
1723940852.684462,130.9239959716797,-95.0,98.0,-2749.0,13.0,-1.0
1723940852.6894913,130.9290008544922,-90.0,104.0,-2752.0,11.0,-12.0
1723940852.69931,130.93899536132812,-96.0,93.0,-2760.0,7.0,-6.0
1723940852.7044847,130.94400024414062,-96.0,104.0,-2741.0,5.0,-2.0
1723940852.714322,130.95399475097656,-96.0,98.0,-2754.0,10.0,-3.0
1723940852.7194364,130.95899963378906,-99.0,106.0,-2741.0,3.0,-10.0
1723940852.7294335,130.968994140625,-96.0,92.0,-2753.0,0.0,-10.0
1723940852.7344587,130.9739990234375,-99.0,102.0,-2744.0,11.0,-6.0
1723940852.7461503,130.98399353027344,-97.0,106.0,-2748.0,-2.0,-10.0
1723940852.75122,130.98899841308594,-92.0,96.0,-2750.0,5.0,-7.0
1723940852.7596052,130.99899291992188,-96.0,94.0,-2756.0,5.0,-2.0
1723940852.7644908,131.00399780273438,-89.0,99.0,-2741.0,9.0,3.0
1723940852.7744203,131.01400756835938,-96.0,87.0,-2752.0,3.0,3.0
1723940852.779634,131.0189971923828,-106.0,91.0,-2759.0,3.0,-1.0
1723940852.790243,131.0290069580078,-105.0,87.0,-2747.0,8.0,1.0
1723940852.7947717,131.03399658203125,-106.0,92.0,-2743.0,-2.0,-3.0
1723940852.803911,131.04400634765625,-100.0,103.0,-2756.0,0.0,-1.0
1723940852.8095353,131.0489959716797,-96.0,93.0,-2738.0,1.0,-5.0
1723940852.8202555,131.0590057373047,-93.0,106.0,-2760.0,10.0,-8.0
1723940852.8246975,131.06399536132812,-104.0,97.0,-2740.0,-1.0,-7.0
1723940852.833938,131.07400512695312,-98.0,95.0,-2752.0,4.0,-3.0
1723940852.839363,131.07899475097656,-99.0,96.0,-2736.0,-1.0,-16.0
1723940852.8493664,131.08900451660156,-93.0,84.0,-2759.0,-1.0,-5.0
1723940852.854516,131.093994140625,-103.0,96.0,-2741.0,6.0,-5.0
1723940852.864018,131.10400390625,-94.0,92.0,-2755.0,9.0,-2.0
1723940852.8694594,131.10899353027344,-100.0,98.0,-2744.0,1.0,0.0
1723940852.8830056,131.11900329589844,-86.0,91.0,-2764.0,6.0,-6.0
1723940852.884913,131.12399291992188,-95.0,90.0,-2739.0,0.0,-17.0
1723940852.8945057,131.13400268554688,-106.0,95.0,-2758.0,2.0,-3.0
1723940852.899327,131.13900756835938,-101.0,98.0,-2746.0,-1.0,-7.0
1723940852.9095867,131.1490020751953,-99.0,90.0,-2763.0,12.0,-8.0
1723940852.9140983,131.1540069580078,-94.0,97.0,-2736.0,1.0,-3.0
1723940852.9240444,131.16400146484375,-82.0,100.0,-2752.0,11.0,-14.0
1723940852.92944,131.16900634765625,-101.0,101.0,-2739.0,7.0,-6.0
1723940852.9390342,131.1790008544922,-103.0,101.0,-2766.0,16.0,-5.0
1723940852.9446254,131.1840057373047,-100.0,86.0,-2739.0,-2.0,0.0
1723940852.9561307,131.19400024414062,-103.0,99.0,-2748.0,2.0,-4.0
1723940852.9590833,131.19900512695312,-102.0,91.0,-2742.0,-1.0,-7.0
1723940852.9691675,131.20899963378906,-105.0,101.0,-2758.0,2.0,-6.0
1723940852.9742744,131.21400451660156,-97.0,93.0,-2728.0,7.0,-10.0
1723940852.9843931,131.2239990234375,-89.0,99.0,-2751.0,4.0,4.0
1723940852.9897122,131.22900390625,-100.0,106.0,-2739.0,6.0,-10.0
1723940852.9994798,131.23899841308594,-93.0,95.0,-2749.0,8.0,0.0
1723940853.004328,131.24400329589844,-97.0,104.0,-2753.0,-3.0,-7.0
1723940853.0143383,131.25399780273438,-98.0,91.0,-2749.0,-1.0,0.0
1723940853.0197532,131.25900268554688,-99.0,91.0,-2747.0,2.0,-6.0
1723940853.0294776,131.2689971923828,-96.0,91.0,-2764.0,8.0,2.0
1723940853.034814,131.2740020751953,-98.0,104.0,-2738.0,2.0,-9.0
1723940853.044881,131.28399658203125,-90.0,100.0,-2750.0,0.0,-7.0
1723940853.0492907,131.28900146484375,-92.0,101.0,-2741.0,8.0,-5.0
1723940853.059401,131.2989959716797,-100.0,98.0,-2764.0,1.0,-8.0
1723940853.064083,131.3040008544922,-110.0,97.0,-2740.0,10.0,-10.0
1723940853.0742714,131.31399536132812,-90.0,98.0,-2752.0,2.0,0.0
1723940853.0794468,131.31900024414062,-92.0,96.0,-2740.0,4.0,-3.0
1723940853.0890949,131.32899475097656,-97.0,99.0,-2759.0,4.0,-9.0
1723940853.0942726,131.33399963378906,-109.0,94.0,-2736.0,4.0,-2.0
1723940853.1042514,131.343994140625,-96.0,100.0,-2755.0,-3.0,-8.0
1723940853.1094375,131.3489990234375,-95.0,81.0,-2738.0,0.0,-10.0
1723940853.1195357,131.35899353027344,-95.0,106.0,-2761.0,2.0,-7.0
1723940853.1247022,131.36399841308594,-98.0,95.0,-2744.0,-2.0,-8.0
1723940853.1345448,131.37399291992188,-90.0,95.0,-2751.0,4.0,7.0
1723940853.1393847,131.37899780273438,-100.0,106.0,-2742.0,5.0,3.0
1723940853.1493492,131.38900756835938,-98.0,98.0,-2753.0,8.0,-13.0
1723940853.15441,131.3939971923828,-105.0,102.0,-2735.0,3.0,-3.0
1723940853.164307,131.4040069580078,-100.0,103.0,-2765.0,10.0,-10.0
1723940853.1695778,131.40899658203125,-98.0,97.0,-2748.0,3.0,-11.0
1723940853.1797104,131.41900634765625,-95.0,98.0,-2760.0,1.0,7.0
1723940853.1838539,131.4239959716797,-99.0,100.0,-2743.0,1.0,-4.0
1723940853.1938765,131.4340057373047,-97.0,94.0,-2759.0,10.0,-3.0
1723940853.1993022,131.43899536132812,-92.0,99.0,-2752.0,4.0,-13.0
1723940853.2094502,131.44900512695312,-107.0,90.0,-2756.0,0.0,-17.0
1723940853.2152345,131.45399475097656,-105.0,97.0,-2743.0,-6.0,-1.0
1723940853.2245097,131.46400451660156,-100.0,84.0,-2757.0,7.0,-8.0
1723940853.229482,131.468994140625,-97.0,85.0,-2747.0,7.0,-4.0
1723940853.2395532,131.47900390625,-102.0,94.0,-2760.0,6.0,-6.0
1723940853.2445853,131.48399353027344,-103.0,94.0,-2729.0,-1.0,-9.0
1723940853.253752,131.49400329589844,-99.0,104.0,-2755.0,2.0,-9.0
1723940853.2593067,131.49899291992188,-90.0,102.0,-2741.0,5.0,-2.0
1723940853.269785,131.50900268554688,-98.0,95.0,-2748.0,7.0,-7.0
1723940853.274055,131.51400756835938,-106.0,99.0,-2742.0,-2.0,-4.0
1723940853.284247,131.5240020751953,-91.0,99.0,-2739.0,4.0,-4.0
1723940853.2928758,131.5290069580078,-101.0,98.0,-2739.0,6.0,1.0
1723940853.299378,131.53900146484375,-109.0,95.0,-2765.0,5.0,-1.0
1723940853.3044734,131.54400634765625,-107.0,100.0,-2740.0,-1.0,-10.0
1723940853.3142195,131.5540008544922,-90.0,95.0,-2755.0,1.0,-17.0
1723940853.3203635,131.5590057373047,-94.0,93.0,-2737.0,12.0,-14.0
1723940853.3293853,131.56900024414062,-100.0,92.0,-2751.0,4.0,3.0
1723940853.3347592,131.57400512695312,-103.0,94.0,-2742.0,2.0,-13.0
1723940853.3442113,131.58399963378906,-100.0,92.0,-2744.0,12.0,-6.0
1723940853.3500912,131.58900451660156,-101.0,99.0,-2745.0,6.0,-4.0
1723940853.359375,131.5989990234375,-100.0,96.0,-2761.0,9.0,-3.0
1723940853.3654916,131.60400390625,-102.0,104.0,-2735.0,-2.0,-13.0
1723940853.3754158,131.61399841308594,-94.0,90.0,-2760.0,14.0,-1.0
1723940853.3794832,131.61900329589844,-89.0,102.0,-2727.0,1.0,-4.0
1723940853.3896942,131.62899780273438,-101.0,95.0,-2754.0,5.0,-6.0
1723940853.3944914,131.63400268554688,-91.0,100.0,-2734.0,1.0,2.0
1723940853.4044096,131.6439971923828,-101.0,96.0,-2753.0,2.0,1.0
1723940853.4086988,131.6490020751953,-93.0,104.0,-2740.0,9.0,-3.0
1723940853.4203553,131.65899658203125,-96.0,90.0,-2746.0,13.0,-4.0
1723940853.4243636,131.66400146484375,-115.0,92.0,-2728.0,5.0,-2.0
1723940853.4344027,131.6739959716797,-101.0,92.0,-2740.0,5.0,2.0
1723940853.4394815,131.6790008544922,-100.0,100.0,-2748.0,3.0,-10.0
1723940853.4500334,131.68899536132812,-84.0,90.0,-2757.0,9.0,-8.0
1723940853.4541872,131.69400024414062,-98.0,96.0,-2732.0,-4.0,-6.0
1723940853.4642031,131.70399475097656,-93.0,93.0,-2753.0,1.0,4.0
1723940853.4694426,131.70899963378906,-106.0,92.0,-2742.0,2.0,-2.0
1723940853.478934,131.718994140625,-100.0,102.0,-2756.0,7.0,-12.0
1723940853.4859257,131.7239990234375,-95.0,97.0,-2730.0,-3.0,2.0
1723940853.4945252,131.73399353027344,-92.0,96.0,-2747.0,9.0,-9.0
1723940853.4994516,131.73899841308594,-104.0,97.0,-2736.0,9.0,-14.0
1723940853.5097423,131.74899291992188,-100.0,96.0,-2757.0,7.0,1.0
1723940853.5141194,131.75399780273438,-92.0,96.0,-2744.0,11.0,-8.0
1723940853.5247695,131.76400756835938,-96.0,99.0,-2746.0,2.0,-10.0
1723940853.5287855,131.7689971923828,-98.0,103.0,-2738.0,10.0,-2.0
1723940853.5394578,131.7790069580078,-89.0,104.0,-2758.0,4.0,-10.0
1723940853.5445,131.78399658203125,-107.0,94.0,-2734.0,4.0,-7.0
1723940853.5544684,131.79400634765625,-91.0,96.0,-2750.0,4.0,-12.0
1723940853.5594928,131.7989959716797,-98.0,106.0,-2732.0,6.0,-11.0
1723940853.570218,131.8090057373047,-93.0,105.0,-2766.0,5.0,9.0
1723940853.5739865,131.81399536132812,-91.0,105.0,-2733.0,5.0,-7.0
1723940853.584162,131.82400512695312,-97.0,98.0,-2756.0,-6.0,4.0
1723940853.5898418,131.82899475097656,-102.0,96.0,-2747.0,5.0,-4.0
1723940853.600121,131.83900451660156,-97.0,82.0,-2755.0,11.0,-9.0
1723940853.6062381,131.843994140625,-98.0,88.0,-2740.0,4.0,-6.0
1723940853.613871,131.85400390625,-95.0,81.0,-2761.0,4.0,-6.0
1723940853.620214,131.85899353027344,-99.0,87.0,-2746.0,2.0,-5.0
1723940853.6292505,131.86900329589844,-94.0,93.0,-2753.0,3.0,1.0
1723940853.6345124,131.87399291992188,-96.0,96.0,-2735.0,-2.0,-4.0
1723940853.644345,131.88400268554688,-95.0,99.0,-2754.0,5.0,-7.0
1723940853.6494756,131.88900756835938,-95.0,94.0,-2740.0,-2.0,-1.0
1723940853.6594071,131.8990020751953,-90.0,102.0,-2760.0,4.0,-9.0
1723940853.6642368,131.9040069580078,-86.0,101.0,-2754.0,5.0,-9.0
1723940853.6741552,131.91400146484375,-110.0,91.0,-2745.0,7.0,-8.0
1723940853.679568,131.91900634765625,-93.0,98.0,-2738.0,2.0,-6.0
1723940853.690648,131.9290008544922,-98.0,94.0,-2750.0,7.0,-13.0
1723940853.6943069,131.9340057373047,-103.0,105.0,-2729.0,8.0,-13.0
1723940853.7044275,131.94400024414062,-88.0,88.0,-2750.0,7.0,-6.0
1723940853.7123358,131.94900512695312,-101.0,90.0,-2740.0,6.0,-16.0
1723940853.7193365,131.95899963378906,-102.0,104.0,-2745.0,2.0,-11.0
1723940853.7244852,131.96400451660156,-97.0,103.0,-2743.0,-5.0,-1.0
1723940853.7346826,131.9739990234375,-92.0,99.0,-2748.0,4.0,-2.0
1723940853.740125,131.97900390625,-91.0,88.0,-2746.0,4.0,-3.0
1723940853.750021,131.98899841308594,-97.0,98.0,-2752.0,6.0,-10.0
1723940853.754406,131.99400329589844,-102.0,94.0,-2742.0,1.0,-1.0
1723940853.7641876,132.00399780273438,-97.0,93.0,-2748.0,6.0,-8.0
1723940853.7701411,132.00900268554688,-93.0,97.0,-2741.0,6.0,-5.0
1723940853.779638,132.0189971923828,-99.0,92.0,-2765.0,6.0,0.0
1723940853.7843783,132.0240020751953,-93.0,97.0,-2727.0,8.0,-8.0
1723940853.7948194,132.03399658203125,-102.0,102.0,-2754.0,8.0,6.0
1723940853.7999842,132.03900146484375,-96.0,102.0,-2729.0,5.0,-11.0
1723940853.809153,132.0489959716797,-102.0,88.0,-2733.0,2.0,-3.0
1723940853.8138802,132.0540008544922,-99.0,99.0,-2740.0,6.0,-1.0
1723940853.8240082,132.06399536132812,-96.0,98.0,-2747.0,3.0,-9.0
1723940853.82998,132.06900024414062,-96.0,102.0,-2745.0,7.0,-5.0
1723940853.8390765,132.07899475097656,-91.0,94.0,-2761.0,6.0,-8.0
1723940853.8441067,132.08399963378906,-95.0,109.0,-2746.0,1.0,-11.0
1723940853.8544812,132.093994140625,-91.0,90.0,-2740.0,-6.0,-2.0
1723940853.859522,132.0989990234375,-89.0,95.0,-2741.0,-1.0,-4.0
1723940853.8695734,132.10899353027344,-109.0,92.0,-2754.0,-1.0,-3.0
1723940853.8748746,132.11399841308594,-105.0,96.0,-2735.0,4.0,3.0
1723940853.884353,132.12399291992188,-96.0,104.0,-2756.0,6.0,-11.0
1723940853.8891997,132.12899780273438,-100.0,101.0,-2741.0,5.0,0.0
1723940853.8993943,132.13900756835938,-92.0,98.0,-2750.0,3.0,0.0
1723940853.904433,132.1439971923828,-96.0,96.0,-2742.0,7.0,-12.0
1723940853.9141493,132.1540069580078,-92.0,100.0,-2741.0,5.0,-6.0
1723940853.9195275,132.15899658203125,-98.0,95.0,-2751.0,9.0,6.0
1723940853.9294658,132.16900634765625,-91.0,96.0,-2745.0,4.0,-10.0
1723940853.9346368,132.1739959716797,-92.0,95.0,-2743.0,2.0,-2.0
1723940853.9445605,132.1840057373047,-103.0,94.0,-2738.0,7.0,-1.0
1723940853.9492793,132.18899536132812,-101.0,101.0,-2748.0,8.0,-14.0
1723940853.959125,132.19900512695312,-112.0,79.0,-2734.0,7.0,-2.0
1723940853.9640887,132.20399475097656,-98.0,83.0,-2749.0,3.0,0.0
1723940853.974472,132.21400451660156,-107.0,87.0,-2743.0,7.0,0.0
1723940853.9799244,132.218994140625,-95.0,98.0,-2735.0,6.0,-1.0
1723940853.9886768,132.22900390625,-100.0,92.0,-2743.0,6.0,-7.0
1723940853.9947038,132.23399353027344,-102.0,105.0,-2738.0,2.0,-12.0
1723940854.0044544,132.24400329589844,-101.0,95.0,-2753.0,1.0,-13.0
1723940854.0093567,132.24899291992188,-100.0,99.0,-2745.0,1.0,-11.0
1723940854.0192752,132.25900268554688,-88.0,93.0,-2749.0,4.0,-6.0
1723940854.0242276,132.26400756835938,-96.0,97.0,-2745.0,3.0,-10.0
1723940854.0351982,132.2740020751953,-102.0,98.0,-2749.0,-2.0,-3.0
1723940854.0393567,132.2790069580078,-100.0,97.0,-2748.0,4.0,7.0
1723940854.0494354,132.28900146484375,-94.0,94.0,-2751.0,-2.0,-7.0
1723940854.054283,132.29400634765625,-94.0,97.0,-2737.0,-2.0,-12.0
1723940854.0641508,132.3040008544922,-103.0,98.0,-2742.0,6.0,-8.0
1723940854.0691686,132.3090057373047,-111.0,98.0,-2725.0,5.0,-2.0
1723940854.0793633,132.31900024414062,-95.0,95.0,-2756.0,-3.0,-3.0
1723940854.0844526,132.32400512695312,-95.0,99.0,-2744.0,-1.0,-6.0
1723940854.0946372,132.33399963378906,-94.0,96.0,-2744.0,1.0,2.0
1723940854.100901,132.33900451660156,-97.0,92.0,-2747.0,3.0,7.0
1723940854.109071,132.3489990234375,-103.0,96.0,-2735.0,-2.0,-7.0
1723940854.1158478,132.35400390625,-96.0,92.0,-2730.0,8.0,-7.0
1723940854.124308,132.36399841308594,-103.0,98.0,-2746.0,-1.0,-13.0
1723940854.1292803,132.36900329589844,-97.0,91.0,-2737.0,7.0,-6.0
1723940854.139579,132.37899780273438,-94.0,98.0,-2760.0,7.0,-2.0
1723940854.1444044,132.38400268554688,-98.0,100.0,-2751.0,6.0,-2.0
1723940854.1541731,132.3939971923828,-93.0,97.0,-2744.0,6.0,-9.0
1723940854.159141,132.3990020751953,-90.0,100.0,-2749.0,7.0,-5.0
1723940854.1702776,132.40899658203125,-94.0,94.0,-2738.0,4.0,-17.0
1723940854.1743712,132.41400146484375,-94.0,94.0,-2738.0,2.0,-8.0
1723940854.1848366,132.4239959716797,-98.0,95.0,-2761.0,1.0,-5.0
1723940854.1896586,132.4290008544922,-101.0,95.0,-2749.0,4.0,-3.0
1723940854.2028625,132.43899536132812,-94.0,100.0,-2762.0,6.0,-6.0
1723940854.204709,132.44400024414062,-92.0,103.0,-2753.0,4.0,-9.0
1723940854.2141778,132.45399475097656,-96.0,97.0,-2754.0,0.0,4.0
1723940854.2189286,132.45899963378906,-103.0,98.0,-2741.0,9.0,-4.0
1723940854.2298634,132.468994140625,-94.0,97.0,-2763.0,5.0,-4.0
1723940854.234349,132.4739990234375,-93.0,96.0,-2733.0,7.0,-9.0
1723940854.2444308,132.48399353027344,-95.0,94.0,-2758.0,1.0,-7.0
1723940854.2502637,132.48899841308594,-87.0,89.0,-2728.0,0.0,-2.0
1723940854.259529,132.49899291992188,-94.0,107.0,-2758.0,7.0,-6.0
1723940854.2637346,132.50399780273438,-90.0,103.0,-2731.0,-2.0,-2.0
1723940854.2744164,132.51400756835938,-99.0,103.0,-2752.0,5.0,-4.0
1723940854.2788923,132.5189971923828,-105.0,109.0,-2747.0,1.0,1.0
1723940854.2897305,132.5290069580078,-99.0,96.0,-2755.0,1.0,-11.0
1723940854.2947097,132.53399658203125,-111.0,98.0,-2751.0,0.0,-16.0
1723940854.3052146,132.54400634765625,-103.0,90.0,-2753.0,5.0,-5.0
1723940854.30948,132.5489959716797,-102.0,87.0,-2749.0,-1.0,-19.0
1723940854.3197737,132.5590057373047,-109.0,87.0,-2750.0,6.0,-5.0
1723940854.3238628,132.56399536132812,-104.0,96.0,-2734.0,5.0,-2.0
1723940854.3347483,132.57400512695312,-100.0,100.0,-2760.0,12.0,-11.0
1723940854.339373,132.57899475097656,-104.0,104.0,-2747.0,1.0,4.0
1723940854.3492181,132.58900451660156,-95.0,98.0,-2753.0,-1.0,-4.0
1723940854.3546836,132.593994140625,-90.0,94.0,-2746.0,6.0,-5.0
1723940854.3642352,132.60400390625,-102.0,90.0,-2757.0,2.0,0.0
1723940854.3695052,132.60899353027344,-98.0,95.0,-2741.0,5.0,-9.0
1723940854.3794267,132.61900329589844,-99.0,94.0,-2757.0,8.0,-18.0
1723940854.3844137,132.62399291992188,-92.0,87.0,-2737.0,-2.0,-7.0
1723940854.3948205,132.63400268554688,-88.0,97.0,-2757.0,-1.0,-1.0
1723940854.3997922,132.63900756835938,-93.0,94.0,-2752.0,-2.0,-7.0
1723940854.4093769,132.6490020751953,-102.0,95.0,-2759.0,4.0,-8.0
1723940854.4139955,132.6540069580078,-96.0,98.0,-2743.0,4.0,-6.0
1723940854.4245477,132.66400146484375,-103.0,89.0,-2754.0,6.0,-6.0
1723940854.4295547,132.66900634765625,-101.0,95.0,-2736.0,13.0,-4.0
1723940854.4394119,132.6790008544922,-101.0,87.0,-2754.0,11.0,2.0
1723940854.4448137,132.6840057373047,-94.0,87.0,-2733.0,3.0,4.0
1723940854.4547834,132.69400024414062,-94.0,102.0,-2763.0,2.0,-13.0
1723940854.4597857,132.69900512695312,-111.0,99.0,-2732.0,0.0,0.0
1723940854.4694407,132.70899963378906,-93.0,100.0,-2748.0,5.0,-14.0
1723940854.474467,132.71400451660156,-108.0,102.0,-2741.0,12.0,-3.0
1723940854.48615,132.7239990234375,-103.0,99.0,-2751.0,-2.0,-3.0
1723940854.4894044,132.72900390625,-104.0,96.0,-2750.0,0.0,-2.0
1723940854.5001428,132.73899841308594,-91.0,96.0,-2760.0,-2.0,2.0
1723940854.5041873,132.74400329589844,-100.0,90.0,-2727.0,12.0,-7.0
1723940854.5139463,132.75399780273438,-100.0,96.0,-2748.0,1.0,-1.0
1723940854.5193784,132.75900268554688,-97.0,100.0,-2732.0,6.0,-8.0
1723940854.5294156,132.7689971923828,-101.0,96.0,-2749.0,3.0,-3.0
1723940854.5343874,132.7740020751953,-97.0,94.0,-2739.0,3.0,-6.0
1723940854.5448763,132.78399658203125,-92.0,95.0,-2748.0,6.0,-9.0
1723940854.5494483,132.78900146484375,-94.0,96.0,-2741.0,5.0,-11.0
1723940854.5593119,132.7989959716797,-87.0,96.0,-2772.0,-1.0,-4.0
1723940854.5643947,132.8040008544922,-96.0,97.0,-2735.0,4.0,-5.0
1723940854.5745702,132.81399536132812,-86.0,105.0,-2767.0,-1.0,-6.0
1723940854.5793724,132.81900024414062,-93.0,99.0,-2743.0,3.0,-3.0
1723940854.5894926,132.82899475097656,-99.0,93.0,-2751.0,3.0,-9.0
1723940854.5943093,132.83399963378906,-104.0,93.0,-2738.0,10.0,4.0
1723940854.6044042,132.843994140625,-91.0,101.0,-2752.0,1.0,-4.0
1723940854.608843,132.8489990234375,-94.0,103.0,-2730.0,1.0,4.0
1723940854.6188881,132.85899353027344,-100.0,97.0,-2754.0,3.0,-6.0
1723940854.6243453,132.86399841308594,-95.0,98.0,-2733.0,2.0,-2.0
1723940854.634493,132.87399291992188,-94.0,91.0,-2748.0,4.0,-5.0
1723940854.6393764,132.87899780273438,-94.0,96.0,-2751.0,6.0,4.0
1723940854.6506476,132.88900756835938,-103.0,93.0,-2758.0,7.0,-11.0
1723940854.6544209,132.8939971923828,-100.0,103.0,-2740.0,6.0,15.0
1723940854.6641347,132.9040069580078,-97.0,89.0,-2750.0,3.0,-9.0
1723940854.6692886,132.90899658203125,-94.0,100.0,-2737.0,3.0,-7.0
1723940854.6794014,132.91900634765625,-97.0,91.0,-2755.0,4.0,-4.0
1723940854.6843412,132.9239959716797,-96.0,101.0,-2738.0,13.0,-13.0
1723940854.6970894,132.9340057373047,-93.0,101.0,-2755.0,-3.0,-9.0
1723940854.6999876,132.93899536132812,-102.0,98.0,-2738.0,4.0,-4.0
1723940854.7094893,132.94900512695312,-105.0,91.0,-2752.0,7.0,-4.0
1723940854.7141538,132.95399475097656,-104.0,82.0,-2742.0,0.0,-9.0
1723940854.7244372,132.96400451660156,-95.0,92.0,-2733.0,2.0,-10.0
1723940854.7347245,132.968994140625,-98.0,95.0,-2738.0,3.0,-5.0
1723940854.7396133,132.97900390625,-98.0,102.0,-2752.0,-3.0,6.0
1723940854.7444482,132.98399353027344,-96.0,105.0,-2738.0,0.0,2.0
1723940854.7544906,132.99400329589844,-93.0,109.0,-2754.0,7.0,-7.0
1723940854.7594657,132.99899291992188,-85.0,106.0,-2755.0,1.0,4.0
1723940854.7695925,133.00900268554688,-101.0,95.0,-2751.0,11.0,-3.0
1723940854.7744446,133.01400756835938,-95.0,90.0,-2741.0,7.0,-5.0
1723940854.7840028,133.0240020751953,-95.0,97.0,-2741.0,1.0,0.0
1723940854.7889888,133.0290069580078,-96.0,96.0,-2741.0,1.0,-6.0
1723940854.8003426,133.03900146484375,-96.0,94.0,-2747.0,-2.0,-9.0
1723940854.8041303,133.04400634765625,-103.0,84.0,-2738.0,15.0,2.0
1723940854.8138902,133.0540008544922,-102.0,88.0,-2752.0,8.0,-3.0
1723940854.818882,133.0590057373047,-92.0,87.0,-2737.0,5.0,4.0
1723940854.8295627,133.06900024414062,-87.0,88.0,-2751.0,5.0,-4.0
1723940854.834614,133.07400512695312,-99.0,87.0,-2751.0,5.0,-4.0
1723940854.8445637,133.08399963378906,-93.0,92.0,-2745.0,1.0,-3.0
1723940854.849561,133.08900451660156,-102.0,102.0,-2748.0,-4.0,-10.0
1723940854.8597095,133.0989990234375,-88.0,89.0,-2752.0,2.0,-5.0
1723940854.8644805,133.10400390625,-91.0,104.0,-2739.0,4.0,-10.0
1723940854.874202,133.11399841308594,-103.0,91.0,-2743.0,5.0,-15.0
1723940854.8791537,133.11900329589844,-107.0,100.0,-2749.0,10.0,-7.0
1723940854.8893828,133.12899780273438,-87.0,94.0,-2755.0,0.0,-5.0
1723940854.8943298,133.13400268554688,-93.0,93.0,-2725.0,-5.0,-6.0
1723940854.9042535,133.1439971923828,-88.0,98.0,-2742.0,12.0,-2.0
1723940854.9092715,133.1490020751953,-95.0,98.0,-2748.0,0.0,2.0
1723940854.9196863,133.15899658203125,-109.0,94.0,-2748.0,2.0,-2.0
1723940854.9238987,133.16400146484375,-92.0,99.0,-2737.0,2.0,-2.0
1723940854.9376154,133.1739959716797,-98.0,88.0,-2750.0,6.0,-10.0
1723940854.9397573,133.1790008544922,-94.0,97.0,-2739.0,1.0,-6.0
1723940854.9493637,133.18899536132812,-100.0,93.0,-2751.0,12.0,-3.0
1723940854.954342,133.19400024414062,-104.0,105.0,-2737.0,-1.0,-11.0
1723940854.9649205,133.20399475097656,-93.0,90.0,-2747.0,2.0,-7.0
1723940854.968994,133.20899963378906,-96.0,90.0,-2738.0,8.0,-9.0
1723940854.9798796,133.218994140625,-100.0,102.0,-2748.0,10.0,-3.0
1723940854.9843595,133.2239990234375,-100.0,102.0,-2742.0,3.0,-3.0
1723940854.9949558,133.23399353027344,-85.0,106.0,-2738.0,1.0,-6.0
1723940855.0002627,133.23899841308594,-90.0,91.0,-2745.0,9.0,1.0
1723940855.009386,133.24899291992188,-99.0,97.0,-2749.0,2.0,2.0
1723940855.0140445,133.25399780273438,-90.0,96.0,-2741.0,3.0,-4.0
1723940855.0244117,133.26400756835938,-101.0,106.0,-2737.0,12.0,-9.0
1723940855.0292356,133.2689971923828,-99.0,99.0,-2733.0,2.0,-11.0
1723940855.0387104,133.2790069580078,-94.0,86.0,-2749.0,3.0,-5.0
1723940855.0437188,133.28399658203125,-102.0,86.0,-2742.0,5.0,-1.0
1723940855.054459,133.29400634765625,-105.0,93.0,-2742.0,5.0,-8.0
1723940855.0594933,133.2989959716797,-103.0,100.0,-2741.0,7.0,-14.0
1723940855.0690036,133.3090057373047,-97.0,106.0,-2753.0,10.0,-8.0
1723940855.074003,133.31399536132812,-94.0,96.0,-2731.0,0.0,-5.0
1723940855.0841525,133.32400512695312,-110.0,95.0,-2740.0,4.0,-5.0
1723940855.089352,133.32899475097656,-106.0,94.0,-2740.0,-9.0,-7.0
1723940855.0995815,133.33900451660156,-85.0,88.0,-2749.0,2.0,-11.0
1723940855.1064563,133.343994140625,-89.0,94.0,-2746.0,2.0,-6.0
1723940855.1142254,133.35400390625,-86.0,94.0,-2738.0,4.0,-2.0
1723940855.1193426,133.35899353027344,-87.0,97.0,-2740.0,8.0,-1.0
1723940855.1293764,133.36900329589844,-98.0,103.0,-2747.0,2.0,0.0
1723940855.1340408,133.37399291992188,-103.0,98.0,-2737.0,1.0,-7.0
1723940855.1443202,133.38400268554688,-104.0,97.0,-2746.0,2.0,-3.0
1723940855.150155,133.38900756835938,-111.0,98.0,-2752.0,5.0,-3.0
1723940855.1595156,133.3990020751953,-103.0,98.0,-2750.0,2.0,-1.0
1723940855.1644788,133.4040069580078,-107.0,99.0,-2743.0,2.0,-1.0
1723940855.1747782,133.41400146484375,-90.0,97.0,-2752.0,3.0,-3.0
1723940855.1789348,133.41900634765625,-101.0,102.0,-2739.0,4.0,-1.0
1723940855.1891387,133.4290008544922,-96.0,97.0,-2750.0,-1.0,-3.0
1723940855.1941807,133.4340057373047,-98.0,99.0,-2743.0,6.0,-13.0
1723940855.2045307,133.44400024414062,-99.0,94.0,-2748.0,7.0,-6.0
1723940855.2094164,133.44900512695312,-101.0,103.0,-2745.0,-7.0,-15.0
1723940855.2196295,133.45899963378906,-92.0,97.0,-2739.0,1.0,-10.0
1723940855.2246304,133.46400451660156,-98.0,102.0,-2745.0,2.0,0.0
1723940855.234407,133.4739990234375,-95.0,95.0,-2744.0,-2.0,-7.0
1723940855.238934,133.47900390625,-100.0,102.0,-2749.0,6.0,-6.0
1723940855.2498286,133.48899841308594,-97.0,98.0,-2736.0,1.0,-5.0
1723940855.2545464,133.49400329589844,-101.0,94.0,-2743.0,5.0,-1.0
1723940855.265341,133.50399780273438,-97.0,100.0,-2739.0,5.0,0.0
1723940855.269451,133.50900268554688,-93.0,111.0,-2746.0,-2.0,0.0
1723940855.279449,133.5189971923828,-101.0,99.0,-2743.0,1.0,-7.0
1723940855.2843695,133.5240020751953,-103.0,89.0,-2742.0,7.0,3.0
1723940855.2947094,133.53399658203125,-104.0,97.0,-2742.0,3.0,-6.0
1723940855.2998946,133.53900146484375,-103.0,95.0,-2744.0,4.0,-2.0
1723940855.3108933,133.5489959716797,-103.0,103.0,-2748.0,6.0,-3.0
1723940855.3141654,133.5540008544922,-104.0,98.0,-2738.0,2.0,0.0
1723940855.3246255,133.56399536132812,-90.0,98.0,-2744.0,7.0,-12.0
1723940855.3296263,133.56900024414062,-99.0,103.0,-2748.0,9.0,-5.0
1723940855.3420155,133.57899475097656,-102.0,101.0,-2743.0,7.0,-6.0
1723940855.3447058,133.58399963378906,-100.0,97.0,-2747.0,8.0,-5.0
1723940855.3543615,133.593994140625,-106.0,96.0,-2742.0,7.0,10.0
1723940855.3597336,133.5989990234375,-102.0,108.0,-2748.0,5.0,-3.0
1723940855.3700387,133.60899353027344,-94.0,105.0,-2735.0,9.0,-10.0
1723940855.3743896,133.61399841308594,-102.0,106.0,-2749.0,5.0,-4.0
1723940855.3844712,133.62399291992188,-95.0,106.0,-2733.0,4.0,-4.0
1723940855.3895566,133.62899780273438,-94.0,103.0,-2752.0,1.0,-7.0
1723940855.3997586,133.63900756835938,-98.0,97.0,-2731.0,-1.0,-3.0
1723940855.404589,133.6439971923828,-96.0,102.0,-2742.0,8.0,-6.0
1723940855.414284,133.6540069580078,-109.0,97.0,-2739.0,1.0,-9.0
1723940855.4193108,133.65899658203125,-92.0,91.0,-2749.0,6.0,-1.0
